File: Data/XRD/c1_Cs25FA50MA25.xy
5.00000 280.000
5.04000 298.000
5.08000 279.000
5.12000 250.000
5.16000 221.000
5.20000 231.000
5.24000 261.000
5.28000 265.000
5.32000 253.000
5.36000 269.000
5.40000 254.000
5.44000 249.000
5.48000 249.000
5.52000 233.000
5.56000 240.000
5.60000 245.000
5.64000 222.000
5.68000 246.000
5.72000 254.000
5.76000 214.000
5.80000 244.000
5.84000 221.000
5.88000 227.000
5.92000 189.000
5.96000 236.000
6.00000 208.000
6.04000 240.000
6.08000 209.000
6.12000 219.000
6.16000 210.000
6.20000 208.000
6.24000 214.000
6.28000 206.000
6.32000 218.000
6.36000 199.000
6.40000 216.000
6.44000 208.000
6.48000 211.000
6.52000 206.000
6.56000 205.000
6.60000 231.000
6.64000 207.000
6.68000 206.000
6.72000 211.000
6.76000 189.000
6.80000 196.000
6.84000 193.000
6.88000 214.000
6.92000 202.000
6.96000 180.000
7.00000 189.000
7.04000 194.000
7.08000 176.000
7.12000 198.000
7.16000 173.000
7.20000 162.000
7.24000 165.000
7.28000 166.000
7.32000 176.000
7.36000 182.000
7.40000 155.000
7.44000 168.000
7.48000 194.000
7.52000 197.000
7.56000 181.000
7.60000 198.000
7.64000 168.000
7.68000 166.000
7.72000 151.000
7.76000 171.000
7.80000 162.000
7.84000 165.000
7.88000 161.000
7.92000 167.000
7.96000 158.000
8.00000 164.000
8.04000 175.000
8.08000 170.000
8.12000 162.000
8.16000 167.000
8.20000 169.000
8.24000 144.000
8.28000 174.000
8.32000 149.000
8.36000 148.000
8.40000 141.000
8.44000 147.000
8.48000 149.000
8.52000 164.000
8.56000 161.000
8.60000 139.000
8.64000 157.000
8.68000 154.000
8.72000 140.000
8.76000 147.000
8.80000 152.000
8.84000 142.000
8.88000 145.000
8.92000 150.000
8.96000 171.000
9.00000 128.000
9.04000 176.000
9.08000 131.000
9.12000 139.000
9.16000 149.000
9.20000 145.000
9.24000 151.000
9.28000 162.000
9.32000 152.000
9.36000 137.000
9.40000 187.000
9.44000 160.000
9.48000 176.000
9.52000 218.000
9.56000 191.000
9.60000 199.000
9.64000 220.000
9.68000 242.000
9.72000 245.000
9.76000 283.000
9.80000 347.000
9.84000 311.000
9.88000 304.000
9.92000 245.000
9.96000 264.000
10.00000 246.000
10.04000 184.000
10.08000 149.000
10.12000 130.000
10.16000 136.000
10.20000 154.000
10.24000 137.000
10.28000 119.000
10.32000 119.000
10.36000 124.000
10.40000 119.000
10.44000 124.000
10.48000 138.000
10.52000 132.000
10.56000 98.000
10.60000 105.000
10.64000 128.000
10.68000 119.000
10.72000 121.000
10.76000 105.000
10.80000 127.000
10.84000 130.000
10.88000 111.000
10.92000 120.000
10.96000 126.000
11.00000 126.000
11.04000 121.000
11.08000 125.000
11.12000 131.000
11.16000 96.000
11.20000 125.000
11.24000 122.000
11.28000 131.000
11.32000 110.000
11.36000 135.000
11.40000 124.000
11.44000 112.000
11.48000 119.000
11.52000 116.000
11.56000 105.000
11.60000 121.000
11.64000 139.000
11.68000 127.000
11.72000 106.000
11.76000 109.000
11.80000 115.000
11.84000 100.000
11.88000 116.000
11.92000 132.000
11.96000 113.000
12.00000 110.000
12.04000 108.000
12.08000 124.000
12.12000 103.000
12.16000 122.000
12.20000 135.000
12.24000 148.000
12.28000 123.000
12.32000 132.000
12.36000 151.000
12.40000 155.000
12.44000 209.000
12.48000 213.000
12.52000 251.000
12.56000 287.000
12.60000 315.000
12.64000 371.000
12.68000 359.000
12.72000 311.000
12.76000 268.000
12.80000 234.000
12.84000 200.000
12.88000 169.000
12.92000 218.000
12.96000 196.000
13.00000 214.000
13.04000 238.000
13.08000 257.000
13.12000 215.000
13.16000 161.000
13.20000 177.000
13.24000 156.000
13.28000 148.000
13.32000 115.000
13.36000 125.000
13.40000 120.000
13.44000 150.000
13.48000 170.000
13.52000 162.000
13.56000 180.000
13.60000 211.000
13.64000 276.000
13.68000 339.000
13.72000 421.000
13.76000 481.000
13.80000 581.000
13.84000 776.000
13.88000 941.000
13.92000 1167.000
13.96000 1328.000
14.00000 1655.000
14.04000 1602.000
14.08000 1360.000
14.12000 876.000
14.16000 578.000
14.20000 334.000
14.24000 239.000
14.28000 194.000
14.32000 172.000
14.36000 146.000
14.40000 150.000
14.44000 143.000
14.48000 139.000
14.52000 126.000
14.56000 116.000
14.60000 117.000
14.64000 102.000
14.68000 110.000
14.72000 113.000
14.76000 106.000
14.80000 122.000
14.84000 113.000
14.88000 112.000
14.92000 97.000
14.96000 95.000
15.00000 97.000
15.04000 110.000
15.08000 89.000
15.12000 95.000
15.16000 90.000
15.20000 76.000
15.24000 82.000
15.28000 94.000
15.32000 81.000
15.36000 105.000
15.40000 95.000
15.44000 90.000
15.48000 91.000
15.52000 76.000
15.56000 72.000
15.60000 84.000
15.64000 80.000
15.68000 82.000
15.72000 90.000
15.76000 72.000
15.80000 67.000
15.84000 103.000
15.88000 76.000
15.92000 71.000
15.96000 73.000
16.00000 82.000
16.04000 81.000
16.08000 83.000
16.12000 85.000
16.16000 72.000
16.20000 74.000
16.24000 71.000
16.28000 100.000
16.32000 71.000
16.36000 62.000
16.40000 79.000
16.44000 78.000
16.48000 88.000
16.52000 92.000
16.56000 83.000
16.60000 82.000
16.64000 76.000
16.68000 90.000
16.72000 69.000
16.76000 94.000
16.80000 106.000
16.84000 121.000
16.88000 108.000
16.92000 117.000
16.96000 105.000
17.00000 113.000
17.04000 105.000
17.08000 82.000
17.12000 85.000
17.16000 90.000
17.20000 86.000
17.24000 89.000
17.28000 61.000
17.32000 94.000
17.36000 84.000
17.40000 86.000
17.44000 86.000
17.48000 110.000
17.52000 98.000
17.56000 98.000
17.60000 114.000
17.64000 141.000
17.68000 118.000
17.72000 108.000
17.76000 110.000
17.80000 88.000
17.84000 71.000
17.88000 70.000
17.92000 82.000
17.96000 68.000
18.00000 79.000
18.04000 81.000
18.08000 57.000
18.12000 71.000
18.16000 70.000
18.20000 72.000
18.24000 80.000
18.28000 77.000
18.32000 63.000
18.36000 78.000
18.40000 90.000
18.44000 66.000
18.48000 80.000
18.52000 81.000
18.56000 79.000
18.60000 88.000
18.64000 76.000
18.68000 77.000
18.72000 73.000
18.76000 82.000
18.80000 62.000
18.84000 79.000
18.88000 64.000
18.92000 76.000
18.96000 79.000
19.00000 86.000
19.04000 75.000
19.08000 85.000
19.12000 74.000
19.16000 81.000
19.20000 82.000
19.24000 72.000
19.28000 75.000
19.32000 77.000
19.36000 77.000
19.40000 82.000
19.44000 68.000
19.48000 82.000
19.52000 106.000
19.56000 116.000
19.60000 101.000
19.64000 120.000
19.68000 142.000
19.72000 175.000
19.76000 211.000
19.80000 212.000
19.84000 279.000
19.88000 274.000
19.92000 277.000
19.96000 254.000
20.00000 193.000
20.04000 130.000
20.08000 103.000
20.12000 85.000
20.16000 100.000
20.20000 87.000
20.24000 69.000
20.28000 77.000
20.32000 81.000
20.36000 71.000
20.40000 73.000
20.44000 82.000
20.48000 68.000
20.52000 93.000
20.56000 80.000
20.60000 83.000
20.64000 72.000
20.68000 77.000
20.72000 91.000
20.76000 85.000
20.80000 72.000
20.84000 65.000
20.88000 89.000
20.92000 73.000
20.96000 85.000
21.00000 90.000
21.04000 75.000
21.08000 61.000
21.12000 81.000
21.16000 75.000
21.20000 62.000
21.24000 72.000
21.28000 52.000
21.32000 86.000
21.36000 74.000
21.40000 75.000
21.44000 77.000
21.48000 80.000
21.52000 77.000
21.56000 81.000
21.60000 110.000
21.64000 87.000
21.68000 110.000
21.72000 104.000
21.76000 125.000
21.80000 82.000
21.84000 98.000
21.88000 83.000
21.92000 94.000
21.96000 89.000
22.00000 74.000
22.04000 81.000
22.08000 67.000
22.12000 69.000
22.16000 96.000
22.20000 78.000
22.24000 99.000
22.28000 111.000
22.32000 124.000
22.36000 105.000
22.40000 132.000
22.44000 131.000
22.48000 122.000
22.52000 145.000
22.56000 132.000
22.60000 205.000
22.64000 204.000
22.68000 217.000
22.72000 199.000
22.76000 173.000
22.80000 176.000
22.84000 131.000
22.88000 127.000
22.92000 117.000
22.96000 113.000
23.00000 108.000
23.04000 92.000
23.08000 57.000
23.12000 89.000
23.16000 89.000
23.20000 67.000
23.24000 81.000
23.28000 76.000
23.32000 74.000
23.36000 74.000
23.40000 58.000
23.44000 80.000
23.48000 69.000
23.52000 72.000
23.56000 63.000
23.60000 89.000
23.64000 71.000
23.68000 65.000
23.72000 52.000
23.76000 73.000
23.80000 83.000
23.84000 65.000
23.88000 63.000
23.92000 76.000
23.96000 73.000
24.00000 85.000
24.04000 77.000
24.08000 91.000
24.12000 87.000
24.16000 115.000
24.20000 152.000
24.24000 169.000
24.28000 174.000
24.32000 210.000
24.36000 251.000
24.40000 293.000
24.44000 285.000
24.48000 219.000
24.52000 174.000
24.56000 127.000
24.60000 123.000
24.64000 84.000
24.68000 82.000
24.72000 71.000
24.76000 100.000
24.80000 70.000
24.84000 67.000
24.88000 74.000
24.92000 64.000
24.96000 89.000
25.00000 82.000
25.04000 89.000
25.08000 74.000
25.12000 70.000
25.16000 75.000
25.20000 85.000
25.24000 92.000
25.28000 108.000
25.32000 97.000
25.36000 110.000
25.40000 101.000
25.44000 97.000
25.48000 109.000
25.52000 103.000
25.56000 106.000
25.60000 131.000
25.64000 124.000
25.68000 150.000
25.72000 125.000
25.76000 129.000
25.80000 95.000
25.84000 95.000
25.88000 105.000
25.92000 103.000
25.96000 110.000
26.00000 103.000
26.04000 113.000
26.08000 99.000
26.12000 119.000
26.16000 164.000
26.20000 205.000
26.24000 266.000
26.28000 238.000
26.32000 289.000
26.36000 283.000
26.40000 288.000
26.44000 301.000
26.48000 231.000
26.52000 220.000
26.56000 189.000
26.60000 140.000
26.64000 146.000
26.68000 104.000
26.72000 102.000
26.76000 91.000
26.80000 86.000
26.84000 93.000
26.88000 100.000
26.92000 95.000
26.96000 116.000
27.00000 125.000
27.04000 128.000
27.08000 143.000
27.12000 170.000
27.16000 174.000
27.20000 152.000
27.24000 152.000
27.28000 142.000
27.32000 140.000
27.36000 147.000
27.40000 166.000
27.44000 160.000
27.48000 165.000
27.52000 155.000
27.56000 136.000
27.60000 117.000
27.64000 100.000
27.68000 91.000
27.72000 90.000
27.76000 85.000
27.80000 126.000
27.84000 105.000
27.88000 129.000
27.92000 148.000
27.96000 203.000
28.00000 265.000
28.04000 336.000
28.08000 445.000
28.12000 590.000
28.16000 760.000
28.20000 863.000
28.24000 940.000
28.28000 924.000
28.32000 864.000
28.36000 660.000
28.40000 504.000
28.44000 367.000
28.48000 250.000
28.52000 141.000
28.56000 143.000
28.60000 109.000
28.64000 104.000
28.68000 81.000
28.72000 76.000
28.76000 74.000
28.80000 74.000
28.84000 80.000
28.88000 86.000
28.92000 69.000
28.96000 91.000
29.00000 59.000
29.04000 70.000
29.08000 88.000
29.12000 80.000
29.16000 84.000
29.20000 63.000
29.24000 63.000
29.28000 76.000
29.32000 73.000
29.36000 69.000
29.40000 58.000
29.44000 75.000
29.48000 74.000
29.52000 78.000
29.56000 82.000
29.60000 70.000
29.64000 68.000
29.68000 62.000
29.72000 76.000
29.76000 59.000
29.80000 65.000
29.84000 74.000
29.88000 63.000
29.92000 50.000
29.96000 56.000
30.00000 66.000
30.04000 60.000
30.08000 53.000
30.12000 62.000
30.16000 62.000
30.20000 66.000
30.24000 53.000
30.28000 64.000
30.32000 56.000
30.36000 65.000
30.40000 54.000
30.44000 65.000
30.48000 61.000
30.52000 54.000
30.56000 59.000
30.60000 61.000
30.64000 55.000
30.68000 47.000
30.72000 57.000
30.76000 38.000
30.80000 61.000
30.84000 52.000
30.88000 65.000
30.92000 59.000
30.96000 62.000
31.00000 68.000
31.04000 54.000
31.08000 81.000
31.12000 86.000
31.16000 75.000
31.20000 102.000
31.24000 116.000
31.28000 153.000
31.32000 179.000
31.36000 175.000
31.40000 194.000
31.44000 273.000
31.48000 280.000
31.52000 333.000
31.56000 438.000
31.60000 485.000
31.64000 547.000
31.68000 594.000
31.72000 536.000
31.76000 457.000
31.80000 378.000
31.84000 276.000
31.88000 185.000
31.92000 121.000
31.96000 110.000
32.00000 90.000
32.04000 71.000
32.08000 77.000
32.12000 65.000
32.16000 82.000
32.20000 62.000
32.24000 72.000
32.28000 62.000
32.32000 55.000
32.36000 69.000
32.40000 63.000
32.44000 71.000
32.48000 70.000
32.52000 69.000
32.56000 80.000
32.60000 89.000
32.64000 86.000
32.68000 88.000
32.72000 83.000
32.76000 49.000
32.80000 66.000
32.84000 58.000
32.88000 56.000
32.92000 50.000
32.96000 65.000
33.00000 59.000
33.04000 52.000
33.08000 49.000
33.12000 50.000
33.16000 53.000
33.20000 55.000
33.24000 67.000
33.28000 75.000
33.32000 69.000
33.36000 86.000
33.40000 62.000
33.44000 50.000
33.48000 53.000
33.52000 48.000
33.56000 46.000
33.60000 43.000
33.64000 40.000
33.68000 32.000
33.72000 40.000
33.76000 42.000
33.80000 43.000
33.84000 43.000
33.88000 48.000
33.92000 38.000
33.96000 33.000
34.00000 34.000
34.04000 33.000
34.08000 35.000
34.12000 39.000
34.16000 40.000
34.20000 35.000
34.24000 53.000
34.28000 54.000
34.32000 31.000
34.36000 46.000
34.40000 55.000
34.44000 42.000
34.48000 55.000
34.52000 50.000
34.56000 65.000
34.60000 92.000
34.64000 83.000
34.68000 90.000
34.72000 117.000
34.76000 132.000
34.80000 118.000
34.84000 126.000
34.88000 99.000
34.92000 105.000
34.96000 82.000
35.00000 70.000
35.04000 45.000
35.08000 33.000
35.12000 46.000
35.16000 47.000
35.20000 48.000
35.24000 54.000
35.28000 39.000
35.32000 33.000
35.36000 44.000
35.40000 32.000
35.44000 31.000
35.48000 40.000
35.52000 51.000
35.56000 37.000
35.60000 55.000
35.64000 42.000
35.68000 53.000
35.72000 37.000
35.76000 64.000
35.80000 60.000
35.84000 59.000
35.88000 49.000
35.92000 67.000
35.96000 50.000
36.00000 48.000
36.04000 60.000
36.08000 52.000
36.12000 54.000
36.16000 63.000
36.20000 54.000
36.24000 41.000
36.28000 55.000
36.32000 45.000
36.36000 50.000
36.40000 50.000
36.44000 57.000
36.48000 48.000
36.52000 48.000
36.56000 44.000
36.60000 35.000
36.64000 43.000
36.68000 51.000
36.72000 49.000
36.76000 51.000
36.80000 30.000
36.84000 34.000
36.88000 55.000
36.92000 35.000
36.96000 36.000
37.00000 37.000
37.04000 45.000
37.08000 36.000
37.12000 43.000
37.16000 45.000
37.20000 35.000
37.24000 40.000
37.28000 43.000
37.32000 43.000
37.36000 57.000
37.40000 60.000
37.44000 78.000
37.48000 81.000
37.52000 107.000
37.56000 105.000
37.60000 97.000
37.64000 104.000
37.68000 115.000
37.72000 98.000
37.76000 98.000
37.80000 75.000
37.84000 88.000
37.88000 72.000
37.92000 53.000
37.96000 39.000
38.00000 38.000
38.04000 44.000
38.08000 41.000
38.12000 43.000
38.16000 42.000
38.20000 21.000
38.24000 40.000
38.28000 30.000
38.32000 39.000
38.36000 48.000
38.40000 42.000
38.44000 39.000
38.48000 37.000
38.52000 46.000
38.56000 36.000
38.60000 53.000
38.64000 49.000
38.68000 55.000
38.72000 35.000
38.76000 37.000
38.80000 33.000
38.84000 42.000
38.88000 50.000
38.92000 37.000
38.96000 55.000
39.00000 34.000
39.04000 32.000
39.08000 46.000
39.12000 45.000
39.16000 46.000
39.20000 40.000
39.24000 47.000
39.28000 41.000
39.32000 43.000
39.36000 73.000
39.40000 75.000
39.44000 74.000
39.48000 94.000
39.52000 100.000
39.56000 94.000
39.60000 69.000
39.64000 68.000
39.68000 73.000
39.72000 44.000
39.76000 53.000
39.80000 54.000
39.84000 42.000
39.88000 49.000
39.92000 57.000
39.96000 53.000
40.00000 68.000
40.04000 77.000
40.08000 97.000
40.12000 102.000
40.16000 144.000
40.20000 174.000
40.24000 232.000
40.28000 228.000
40.32000 235.000
40.36000 265.000
40.40000 283.000
40.44000 255.000
40.48000 237.000
40.52000 239.000
40.56000 181.000
40.60000 170.000
40.64000 133.000
40.68000 84.000
40.72000 71.000
40.76000 71.000
40.80000 59.000
40.84000 54.000
40.88000 51.000
40.92000 44.000
40.96000 57.000
41.00000 57.000
41.04000 58.000
41.08000 64.000
41.12000 55.000
41.16000 79.000
41.20000 66.000
41.24000 69.000
41.28000 52.000
41.32000 54.000
41.36000 55.000
41.40000 48.000
41.44000 45.000
41.48000 50.000
41.52000 51.000
41.56000 50.000
41.60000 68.000
41.64000 54.000
41.68000 56.000
41.72000 59.000
41.76000 57.000
41.80000 57.000
41.84000 49.000
41.88000 37.000
41.92000 57.000
41.96000 48.000
42.00000 44.000
42.04000 45.000
42.08000 63.000
42.12000 57.000
42.16000 58.000
42.20000 66.000
42.24000 45.000
42.28000 60.000
42.32000 71.000
42.36000 49.000
42.40000 48.000
42.44000 43.000
42.48000 60.000
42.52000 43.000
42.56000 40.000
42.60000 59.000
42.64000 72.000
42.68000 81.000
42.72000 94.000
42.76000 113.000
42.80000 131.000
42.84000 135.000
42.88000 168.000
42.92000 180.000
42.96000 184.000
43.00000 156.000
43.04000 176.000
43.08000 120.000
43.12000 111.000
43.16000 94.000
43.20000 69.000
43.24000 64.000
43.28000 54.000
43.32000 37.000
43.36000 37.000
43.40000 37.000
43.44000 39.000
43.48000 32.000
43.52000 27.000
43.56000 34.000
43.60000 41.000
43.64000 40.000
43.68000 39.000
43.72000 45.000
43.76000 40.000
43.80000 37.000
43.84000 29.000
43.88000 36.000
43.92000 31.000
43.96000 43.000
44.00000 37.000
44.04000 46.000
44.08000 44.000
44.12000 58.000
44.16000 49.000
44.20000 50.000
44.24000 62.000
44.28000 69.000
44.32000 65.000
44.36000 60.000
44.40000 70.000
44.44000 53.000
44.48000 59.000
44.52000 42.000
44.56000 53.000
44.60000 41.000
44.64000 45.000
44.68000 42.000
44.72000 36.000
44.76000 35.000
44.80000 22.000
44.84000 46.000
44.88000 27.000
44.92000 30.000
44.96000 26.000
45.00000 30.000
45.04000 25.000
45.08000 23.000
45.12000 27.000
45.16000 34.000
45.20000 35.000
45.24000 25.000
45.28000 24.000
45.32000 38.000
45.36000 36.000
45.40000 43.000
45.44000 32.000
45.48000 38.000
45.52000 24.000
45.56000 46.000
45.60000 33.000
45.64000 48.000
45.68000 37.000
45.72000 29.000
45.76000 41.000
45.80000 42.000
45.84000 29.000
45.88000 37.000
45.92000 42.000
45.96000 29.000
46.00000 35.000
46.04000 18.000
46.08000 34.000
46.12000 25.000
46.16000 44.000
46.20000 25.000
46.24000 43.000
46.28000 29.000
46.32000 30.000
46.36000 40.000
46.40000 34.000
46.44000 42.000
46.48000 30.000
46.52000 27.000
46.56000 36.000
46.60000 31.000
46.64000 27.000
46.68000 31.000
46.72000 34.000
46.76000 25.000
46.80000 36.000
46.84000 30.000
46.88000 31.000
46.92000 21.000
46.96000 28.000
47.00000 33.000
47.04000 29.000
47.08000 24.000
47.12000 30.000
47.16000 30.000
47.20000 28.000
47.24000 24.000
47.28000 36.000
47.32000 32.000
47.36000 31.000
47.40000 28.000
47.44000 24.000
47.48000 29.000
47.52000 20.000
47.56000 27.000
47.60000 33.000
47.64000 28.000
47.68000 45.000
47.72000 43.000
47.76000 29.000
47.80000 30.000
47.84000 22.000
47.88000 31.000
47.92000 41.000
47.96000 24.000
48.00000 31.000
48.04000 22.000
48.08000 27.000
48.12000 35.000
48.16000 30.000
48.20000 24.000
48.24000 33.000
48.28000 30.000
48.32000 28.000
48.36000 27.000
48.40000 29.000
48.44000 32.000
48.48000 35.000
48.52000 25.000
48.56000 46.000
48.60000 35.000
48.64000 30.000
48.68000 29.000
48.72000 34.000
48.76000 36.000
48.80000 24.000
48.84000 31.000
48.88000 23.000
48.92000 26.000
48.96000 32.000
49.00000 19.000
49.04000 35.000
49.08000 30.000
49.12000 22.000
49.16000 29.000
49.20000 33.000
49.24000 31.000
49.28000 31.000
49.32000 39.000
49.36000 27.000
49.40000 39.000
49.44000 32.000
49.48000 28.000
49.52000 32.000
49.56000 26.000
49.60000 30.000
49.64000 43.000
49.68000 47.000
49.72000 42.000
49.76000 43.000
49.80000 46.000
49.84000 62.000
49.88000 62.000
49.92000 60.000
49.96000 49.000
50.00000 73.000
50.04000 58.000
50.08000 62.000
50.12000 59.000
50.16000 58.000
50.20000 58.000
50.24000 36.000
50.28000 38.000
50.32000 44.000
50.36000 33.000
50.40000 33.000
50.44000 28.000
50.48000 34.000
50.52000 31.000
50.56000 39.000
50.60000 32.000
50.64000 29.000
50.68000 24.000
50.72000 38.000
50.76000 40.000
50.80000 26.000
50.84000 29.000
50.88000 24.000
50.92000 27.000
50.96000 28.000
51.00000 31.000
51.04000 32.000
51.08000 34.000
51.12000 21.000
51.16000 35.000
51.20000 32.000
51.24000 26.000
51.28000 30.000
51.32000 24.000
51.36000 27.000
51.40000 24.000
51.44000 29.000
51.48000 28.000
51.52000 25.000
51.56000 25.000
51.60000 34.000
51.64000 30.000
51.68000 33.000
51.72000 35.000
51.76000 38.000
51.80000 46.000
51.84000 39.000
51.88000 35.000
51.92000 37.000
51.96000 43.000
52.00000 47.000
52.04000 69.000
52.08000 54.000
52.12000 52.000
52.16000 53.000
52.20000 46.000
52.24000 42.000
52.28000 42.000
52.32000 66.000
52.36000 45.000
52.40000 42.000
52.44000 37.000
52.48000 37.000
52.52000 30.000
52.56000 35.000
52.60000 39.000
52.64000 34.000
52.68000 26.000
52.72000 40.000
52.76000 27.000
52.80000 30.000
52.84000 21.000
52.88000 33.000
52.92000 29.000
52.96000 34.000
53.00000 26.000
53.04000 34.000
53.08000 35.000
53.12000 36.000
53.16000 24.000
53.20000 34.000
53.24000 35.000
53.28000 41.000
53.32000 44.000
53.36000 42.000
53.40000 43.000
53.44000 42.000
53.48000 39.000
53.52000 44.000
53.56000 40.000
53.60000 36.000
53.64000 39.000
53.68000 24.000
53.72000 26.000
53.76000 30.000
53.80000 32.000
53.84000 32.000
53.88000 28.000
53.92000 22.000
53.96000 27.000
54.00000 22.000
54.04000 28.000
54.08000 31.000
54.12000 34.000
54.16000 38.000
54.20000 46.000
54.24000 42.000
54.28000 37.000
54.32000 33.000
54.36000 31.000
54.40000 36.000
54.44000 29.000
54.48000 44.000
54.52000 27.000
54.56000 38.000
54.60000 25.000
54.64000 23.000
54.68000 15.000
54.72000 19.000
54.76000 29.000
54.80000 29.000
54.84000 20.000
54.88000 28.000
54.92000 26.000
54.96000 20.000
55.00000 18.000
55.04000 22.000
55.08000 22.000
55.12000 24.000
55.16000 20.000
55.20000 19.000
55.24000 23.000
55.28000 23.000
55.32000 18.000
55.36000 19.000
55.40000 26.000
55.44000 25.000
55.48000 24.000
55.52000 25.000
55.56000 21.000
55.60000 24.000
55.64000 28.000
55.68000 24.000
55.72000 23.000
55.76000 31.000
55.80000 24.000
55.84000 25.000
55.88000 28.000
55.92000 24.000
55.96000 23.000
56.00000 23.000
56.04000 17.000
56.08000 16.000
56.12000 25.000
56.16000 21.000
56.20000 19.000
56.24000 20.000
56.28000 29.000
56.32000 30.000
56.36000 32.000
56.40000 30.000
56.44000 32.000
56.48000 26.000
56.52000 25.000
56.56000 15.000
56.60000 19.000
56.64000 18.000
56.68000 30.000
56.72000 19.000
56.76000 29.000
56.80000 25.000
56.84000 27.000
56.88000 24.000
56.92000 21.000
56.96000 17.000
57.00000 27.000
57.04000 24.000
57.08000 26.000
57.12000 16.000
57.16000 29.000
57.20000 28.000
57.24000 22.000
57.28000 23.000
57.32000 17.000
57.36000 26.000
57.40000 20.000
57.44000 17.000
57.48000 19.000
57.52000 22.000
57.56000 19.000
57.60000 13.000
57.64000 17.000
57.68000 18.000
57.72000 26.000
57.76000 26.000
57.80000 34.000
57.84000 25.000
57.88000 33.000
57.92000 24.000
57.96000 14.000
58.00000 25.000
58.04000 19.000
58.08000 22.000
58.12000 26.000
58.16000 27.000
58.20000 32.000
58.24000 30.000
58.28000 34.000
58.32000 43.000
58.36000 35.000
58.40000 34.000
58.44000 40.000
58.48000 34.000
58.52000 34.000
58.56000 34.000
58.60000 36.000
58.64000 28.000
58.68000 23.000
58.72000 25.000
58.76000 28.000
58.80000 35.000
58.84000 20.000
58.88000 21.000
58.92000 19.000
58.96000 12.000
59.00000 12.000
59.04000 20.000
59.08000 20.000
59.12000 16.000
59.16000 33.000
59.20000 21.000
59.24000 18.000
59.28000 26.000
59.32000 19.000
59.36000 23.000
59.40000 28.000
59.44000 27.000
59.48000 21.000
59.52000 33.000
59.56000 22.000
59.60000 30.000
59.64000 28.000
59.68000 31.000
59.72000 27.000
59.76000 28.000
59.80000 25.000
59.84000 31.000
59.88000 43.000
59.92000 31.000