File: Data/XRD/c2_Cs25FA71MA04.xy
5.00000 316.000
5.04000 409.000
5.08000 364.000
5.12000 349.000
5.16000 341.000
5.20000 388.000
5.24000 386.000
5.28000 371.000
5.32000 346.000
5.36000 343.000
5.40000 355.000
5.44000 346.000
5.48000 359.000
5.52000 352.000
5.56000 310.000
5.60000 338.000
5.64000 346.000
5.68000 348.000
5.72000 343.000
5.76000 347.000
5.80000 354.000
5.84000 320.000
5.88000 343.000
5.92000 313.000
5.96000 294.000
6.00000 326.000
6.04000 314.000
6.08000 265.000
6.12000 305.000
6.16000 284.000
6.20000 299.000
6.24000 297.000
6.28000 288.000
6.32000 306.000
6.36000 298.000
6.40000 315.000
6.44000 264.000
6.48000 267.000
6.52000 308.000
6.56000 261.000
6.60000 280.000
6.64000 304.000
6.68000 276.000
6.72000 266.000
6.76000 281.000
6.80000 325.000
6.84000 270.000
6.88000 255.000
6.92000 290.000
6.96000 271.000
7.00000 273.000
7.04000 275.000
7.08000 261.000
7.12000 267.000
7.16000 265.000
7.20000 255.000
7.24000 278.000
7.28000 258.000
7.32000 243.000
7.36000 261.000
7.40000 263.000
7.44000 259.000
7.48000 260.000
7.52000 247.000
7.56000 266.000
7.60000 254.000
7.64000 221.000
7.68000 235.000
7.72000 243.000
7.76000 210.000
7.80000 249.000
7.84000 256.000
7.88000 241.000
7.92000 245.000
7.96000 223.000
8.00000 242.000
8.04000 229.000
8.08000 219.000
8.12000 223.000
8.16000 245.000
8.20000 243.000
8.24000 219.000
8.28000 200.000
8.32000 209.000
8.36000 217.000
8.40000 214.000
8.44000 227.000
8.48000 233.000
8.52000 214.000
8.56000 210.000
8.60000 206.000
8.64000 209.000
8.68000 216.000
8.72000 229.000
8.76000 195.000
8.80000 213.000
8.84000 208.000
8.88000 213.000
8.92000 208.000
8.96000 231.000
9.00000 204.000
9.04000 219.000
9.08000 224.000
9.12000 214.000
9.16000 210.000
9.20000 189.000
9.24000 231.000
9.28000 180.000
9.32000 218.000
9.36000 219.000
9.40000 225.000
9.44000 211.000
9.48000 243.000
9.52000 236.000
9.56000 244.000
9.60000 284.000
9.64000 279.000
9.68000 284.000
9.72000 322.000
9.76000 353.000
9.80000 372.000
9.84000 402.000
9.88000 337.000
9.92000 333.000
9.96000 312.000
10.00000 299.000
10.04000 273.000
10.08000 200.000
10.12000 215.000
10.16000 213.000
10.20000 150.000
10.24000 153.000
10.28000 195.000
10.32000 176.000
10.36000 186.000
10.40000 149.000
10.44000 153.000
10.48000 191.000
10.52000 174.000
10.56000 182.000
10.60000 171.000
10.64000 185.000
10.68000 188.000
10.72000 192.000
10.76000 179.000
10.80000 168.000
10.84000 153.000
10.88000 151.000
10.92000 151.000
10.96000 156.000
11.00000 167.000
11.04000 154.000
11.08000 184.000
11.12000 168.000
11.16000 165.000
11.20000 199.000
11.24000 161.000
11.28000 174.000
11.32000 198.000
11.36000 173.000
11.40000 163.000
11.44000 186.000
11.48000 158.000
11.52000 191.000
11.56000 160.000
11.60000 152.000
11.64000 153.000
11.68000 162.000
11.72000 156.000
11.76000 159.000
11.80000 155.000
11.84000 157.000
11.88000 154.000
11.92000 167.000
11.96000 172.000
12.00000 158.000
12.04000 159.000
12.08000 198.000
12.12000 182.000
12.16000 193.000
12.20000 180.000
12.24000 206.000
12.28000 231.000
12.32000 245.000
12.36000 270.000
12.40000 305.000
12.44000 372.000
12.48000 452.000
12.52000 490.000
12.56000 616.000
12.60000 690.000
12.64000 758.000
12.68000 754.000
12.72000 629.000
12.76000 463.000
12.80000 400.000
12.84000 292.000
12.88000 241.000
12.92000 274.000
12.96000 265.000
13.00000 247.000
13.04000 278.000
13.08000 288.000
13.12000 307.000
13.16000 216.000
13.20000 216.000
13.24000 181.000
13.28000 203.000
13.32000 197.000
13.36000 191.000
13.40000 218.000
13.44000 266.000
13.48000 284.000
13.52000 295.000
13.56000 393.000
13.60000 431.000
13.64000 465.000
13.68000 607.000
13.72000 695.000
13.76000 938.000
13.80000 1174.000
13.84000 1380.000
13.88000 1814.000
13.92000 2233.000
13.96000 2263.000
14.00000 1828.000
14.04000 1224.000
14.08000 699.000
14.12000 412.000
14.16000 299.000
14.20000 208.000
14.24000 218.000
14.28000 167.000
14.32000 169.000
14.36000 131.000
14.40000 137.000
14.44000 115.000
14.48000 122.000
14.52000 133.000
14.56000 145.000
14.60000 145.000
14.64000 123.000
14.68000 137.000
14.72000 136.000
14.76000 123.000
14.80000 109.000
14.84000 133.000
14.88000 93.000
14.92000 110.000
14.96000 115.000
15.00000 121.000
15.04000 119.000
15.08000 110.000
15.12000 121.000
15.16000 126.000
15.20000 131.000
15.24000 123.000
15.28000 121.000
15.32000 106.000
15.36000 107.000
15.40000 112.000
15.44000 120.000
15.48000 128.000
15.52000 100.000
15.56000 90.000
15.60000 106.000
15.64000 127.000
15.68000 119.000
15.72000 124.000
15.76000 110.000
15.80000 99.000
15.84000 104.000
15.88000 109.000
15.92000 98.000
15.96000 122.000
16.00000 120.000
16.04000 117.000
16.08000 108.000
16.12000 112.000
16.16000 121.000
16.20000 112.000
16.24000 119.000
16.28000 75.000
16.32000 116.000
16.36000 95.000
16.40000 108.000
16.44000 122.000
16.48000 103.000
16.52000 115.000
16.56000 124.000
16.60000 111.000
16.64000 109.000
16.68000 91.000
16.72000 113.000
16.76000 105.000
16.80000 124.000
16.84000 115.000
16.88000 121.000
16.92000 128.000
16.96000 141.000
17.00000 141.000
17.04000 130.000
17.08000 105.000
17.12000 92.000
17.16000 112.000
17.20000 121.000
17.24000 115.000
17.28000 106.000
17.32000 101.000
17.36000 125.000
17.40000 127.000
17.44000 118.000
17.48000 119.000
17.52000 108.000
17.56000 131.000
17.60000 133.000
17.64000 154.000
17.68000 161.000
17.72000 152.000
17.76000 126.000
17.80000 129.000
17.84000 99.000
17.88000 102.000
17.92000 102.000
17.96000 85.000
18.00000 101.000
18.04000 99.000
18.08000 96.000
18.12000 96.000
18.16000 100.000
18.20000 102.000
18.24000 86.000
18.28000 98.000
18.32000 112.000
18.36000 109.000
18.40000 98.000
18.44000 97.000
18.48000 107.000
18.52000 106.000
18.56000 86.000
18.60000 107.000
18.64000 105.000
18.68000 110.000
18.72000 95.000
18.76000 87.000
18.80000 88.000
18.84000 103.000
18.88000 105.000
18.92000 84.000
18.96000 89.000
19.00000 105.000
19.04000 92.000
19.08000 117.000
19.12000 94.000
19.16000 105.000
19.20000 100.000
19.24000 98.000
19.28000 94.000
19.32000 110.000
19.36000 97.000
19.40000 100.000
19.44000 134.000
19.48000 128.000
19.52000 158.000
19.56000 185.000
19.60000 226.000
19.64000 268.000
19.68000 313.000
19.72000 383.000
19.76000 407.000
19.80000 423.000
19.84000 345.000
19.88000 266.000
19.92000 183.000
19.96000 148.000
20.00000 131.000
20.04000 132.000
20.08000 115.000
20.12000 77.000
20.16000 93.000
20.20000 114.000
20.24000 94.000
20.28000 102.000
20.32000 94.000
20.36000 103.000
20.40000 86.000
20.44000 86.000
20.48000 104.000
20.52000 80.000
20.56000 87.000
20.60000 95.000
20.64000 99.000
20.68000 102.000
20.72000 84.000
20.76000 109.000
20.80000 106.000
20.84000 102.000
20.88000 109.000
20.92000 127.000
20.96000 122.000
21.00000 111.000
21.04000 104.000
21.08000 104.000
21.12000 115.000
21.16000 97.000
21.20000 85.000
21.24000 99.000
21.28000 91.000
21.32000 92.000
21.36000 96.000
21.40000 98.000
21.44000 104.000
21.48000 95.000
21.52000 113.000
21.56000 113.000
21.60000 119.000
21.64000 167.000
21.68000 140.000
21.72000 167.000
21.76000 156.000
21.80000 126.000
21.84000 125.000
21.88000 99.000
21.92000 88.000
21.96000 100.000
22.00000 97.000
22.04000 123.000
22.08000 103.000
22.12000 80.000
22.16000 108.000
22.20000 94.000
22.24000 90.000
22.28000 93.000
22.32000 91.000
22.36000 91.000
22.40000 106.000
22.44000 107.000
22.48000 134.000
22.52000 158.000
22.56000 177.000
22.60000 206.000
22.64000 250.000
22.68000 231.000
22.72000 219.000
22.76000 176.000
22.80000 170.000
22.84000 150.000
22.88000 139.000
22.92000 117.000
22.96000 123.000
23.00000 134.000
23.04000 103.000
23.08000 85.000
23.12000 95.000
23.16000 86.000
23.20000 80.000
23.24000 96.000
23.28000 84.000
23.32000 101.000
23.36000 87.000
23.40000 92.000
23.44000 73.000
23.48000 97.000
23.52000 94.000
23.56000 102.000
23.60000 113.000
23.64000 86.000
23.68000 91.000
23.72000 87.000
23.76000 84.000
23.80000 98.000
23.84000 89.000
23.88000 115.000
23.92000 127.000
23.96000 116.000
24.00000 132.000
24.04000 167.000
24.08000 169.000
24.12000 209.000
24.16000 333.000
24.20000 384.000
24.24000 510.000
24.28000 537.000
24.32000 476.000
24.36000 397.000
24.40000 251.000
24.44000 192.000
24.48000 155.000
24.52000 123.000
24.56000 106.000
24.60000 99.000
24.64000 100.000
24.68000 87.000
24.72000 75.000
24.76000 91.000
24.80000 89.000
24.84000 91.000
24.88000 88.000
24.92000 100.000
24.96000 88.000
25.00000 107.000
25.04000 116.000
25.08000 99.000
25.12000 110.000
25.16000 124.000
25.20000 151.000
25.24000 136.000
25.28000 164.000
25.32000 165.000
25.36000 173.000
25.40000 159.000
25.44000 172.000
25.48000 166.000
25.52000 161.000
25.56000 149.000
25.60000 191.000
25.64000 203.000
25.68000 248.000
25.72000 215.000
25.76000 169.000
25.80000 150.000
25.84000 139.000
25.88000 104.000
25.92000 124.000
25.96000 114.000
26.00000 128.000
26.04000 142.000
26.08000 128.000
26.12000 183.000
26.16000 168.000
26.20000 222.000
26.24000 305.000
26.28000 330.000
26.32000 379.000
26.36000 339.000
26.40000 377.000
26.44000 363.000
26.48000 387.000
26.52000 314.000
26.56000 238.000
26.60000 214.000
26.64000 159.000
26.68000 132.000
26.72000 131.000
26.76000 95.000
26.80000 117.000
26.84000 114.000
26.88000 125.000
26.92000 131.000
26.96000 181.000
27.00000 185.000
27.04000 248.000
27.08000 333.000
27.12000 332.000
27.16000 320.000
27.20000 277.000
27.24000 229.000
27.28000 190.000
27.32000 171.000
27.36000 187.000
27.40000 213.000
27.44000 238.000
27.48000 215.000
27.52000 178.000
27.56000 180.000
27.60000 153.000
27.64000 158.000
27.68000 156.000
27.72000 127.000
27.76000 147.000
27.80000 208.000
27.84000 285.000
27.88000 335.000
27.92000 496.000
27.96000 669.000
28.00000 893.000
28.04000 1329.000
28.08000 1635.000
28.12000 1582.000
28.16000 1294.000
28.20000 1016.000
28.24000 668.000
28.28000 463.000
28.32000 278.000
28.36000 243.000
28.40000 158.000
28.44000 152.000
28.48000 120.000
28.52000 109.000
28.56000 111.000
28.60000 92.000
28.64000 92.000
28.68000 99.000
28.72000 88.000
28.76000 79.000
28.80000 90.000
28.84000 103.000
28.88000 83.000
28.92000 106.000
28.96000 81.000
29.00000 80.000
29.04000 98.000
29.08000 85.000
29.12000 81.000
29.16000 72.000
29.20000 62.000
29.24000 70.000
29.28000 72.000
29.32000 73.000
29.36000 84.000
29.40000 97.000
29.44000 93.000
29.48000 86.000
29.52000 86.000
29.56000 75.000
29.60000 90.000
29.64000 94.000
29.68000 77.000
29.72000 81.000
29.76000 79.000
29.80000 97.000
29.84000 74.000
29.88000 78.000
29.92000 73.000
29.96000 79.000
30.00000 82.000
30.04000 74.000
30.08000 82.000
30.12000 70.000
30.16000 85.000
30.20000 69.000
30.24000 71.000
30.28000 75.000
30.32000 86.000
30.36000 87.000
30.40000 73.000
30.44000 97.000
30.48000 83.000
30.52000 83.000
30.56000 70.000
30.60000 72.000
30.64000 86.000
30.68000 87.000
30.72000 87.000
30.76000 75.000
30.80000 98.000
30.84000 75.000
30.88000 64.000
30.92000 80.000
30.96000 81.000
31.00000 98.000
31.04000 104.000
31.08000 107.000
31.12000 124.000
31.16000 171.000
31.20000 212.000
31.24000 289.000
31.28000 375.000
31.32000 542.000
31.36000 646.000
31.40000 834.000
31.44000 1142.000
31.48000 1206.000
31.52000 1181.000
31.56000 1023.000
31.60000 773.000
31.64000 524.000
31.68000 335.000
31.72000 239.000
31.76000 138.000
31.80000 96.000
31.84000 98.000
31.88000 94.000
31.92000 91.000
31.96000 75.000
32.00000 65.000
32.04000 93.000
32.08000 100.000
32.12000 88.000
32.16000 79.000
32.20000 50.000
32.24000 73.000
32.28000 76.000
32.32000 73.000
32.36000 82.000
32.40000 64.000
32.44000 82.000
32.48000 81.000
32.52000 85.000
32.56000 102.000
32.60000 90.000
32.64000 98.000
32.68000 102.000
32.72000 90.000
32.76000 96.000
32.80000 75.000
32.84000 71.000
32.88000 68.000
32.92000 56.000
32.96000 67.000
33.00000 58.000
33.04000 64.000
33.08000 66.000
33.12000 79.000
33.16000 80.000
33.20000 80.000
33.24000 104.000
33.28000 111.000
33.32000 93.000
33.36000 94.000
33.40000 78.000
33.44000 78.000
33.48000 68.000
33.52000 69.000
33.56000 61.000
33.60000 51.000
33.64000 46.000
33.68000 55.000
33.72000 39.000
33.76000 54.000
33.80000 58.000
33.84000 49.000
33.88000 75.000
33.92000 51.000
33.96000 57.000
34.00000 60.000
34.04000 62.000
34.08000 59.000
34.12000 60.000
34.16000 70.000
34.20000 66.000
34.24000 64.000
34.28000 75.000
34.32000 76.000
34.36000 85.000
34.40000 87.000
34.44000 107.000
34.48000 125.000
34.52000 160.000
34.56000 167.000
34.60000 213.000
34.64000 176.000
34.68000 162.000
34.72000 122.000
34.76000 124.000
34.80000 93.000
34.84000 71.000
34.88000 47.000
34.92000 57.000
34.96000 66.000
35.00000 59.000
35.04000 62.000
35.08000 64.000
35.12000 59.000
35.16000 54.000
35.20000 53.000
35.24000 72.000
35.28000 55.000
35.32000 63.000
35.36000 59.000
35.40000 65.000
35.44000 55.000
35.48000 46.000
35.52000 48.000
35.56000 63.000
35.60000 52.000
35.64000 65.000
35.68000 61.000
35.72000 76.000
35.76000 70.000
35.80000 73.000
35.84000 56.000
35.88000 67.000
35.92000 67.000
35.96000 71.000
36.00000 82.000
36.04000 68.000
36.08000 84.000
36.12000 86.000
36.16000 68.000
36.20000 69.000
36.24000 58.000
36.28000 74.000
36.32000 56.000
36.36000 63.000
36.40000 50.000
36.44000 55.000
36.48000 63.000
36.52000 70.000
36.56000 70.000
36.60000 78.000
36.64000 78.000
36.68000 62.000
36.72000 72.000
36.76000 68.000
36.80000 57.000
36.84000 50.000
36.88000 56.000
36.92000 65.000
36.96000 50.000
37.00000 40.000
37.04000 54.000
37.08000 59.000
37.12000 53.000
37.16000 50.000
37.20000 51.000
37.24000 66.000
37.28000 58.000
37.32000 59.000
37.36000 66.000
37.40000 76.000
37.44000 104.000
37.48000 99.000
37.52000 130.000
37.56000 157.000
37.60000 174.000
37.64000 146.000
37.68000 145.000
37.72000 178.000
37.76000 143.000
37.80000 133.000
37.84000 121.000
37.88000 73.000
37.92000 67.000
37.96000 64.000
38.00000 55.000
38.04000 59.000
38.08000 50.000
38.12000 53.000
38.16000 62.000
38.20000 55.000
38.24000 49.000
38.28000 62.000
38.32000 64.000
38.36000 54.000
38.40000 59.000
38.44000 68.000
38.48000 59.000
38.52000 60.000
38.56000 86.000
38.60000 81.000
38.64000 61.000
38.68000 50.000
38.72000 58.000
38.76000 59.000
38.80000 57.000
38.84000 54.000
38.88000 54.000
38.92000 50.000
38.96000 58.000
39.00000 46.000
39.04000 56.000
39.08000 49.000
39.12000 64.000
39.16000 75.000
39.20000 59.000
39.24000 59.000
39.28000 76.000
39.32000 72.000
39.36000 104.000
39.40000 107.000
39.44000 122.000
39.48000 103.000
39.52000 139.000
39.56000 94.000
39.60000 104.000
39.64000 103.000
39.68000 97.000
39.72000 80.000
39.76000 89.000
39.80000 88.000
39.84000 97.000
39.88000 114.000
39.92000 153.000
39.96000 196.000
40.00000 241.000
40.04000 352.000
40.08000 504.000
40.12000 582.000
40.16000 649.000
40.20000 582.000
40.24000 559.000
40.28000 405.000
40.32000 330.000
40.36000 218.000
40.40000 169.000
40.44000 147.000
40.48000 117.000
40.52000 127.000
40.56000 104.000
40.60000 93.000
40.64000 96.000
40.68000 92.000
40.72000 106.000
40.76000 84.000
40.80000 59.000
40.84000 71.000
40.88000 60.000
40.92000 76.000
40.96000 81.000
41.00000 81.000
41.04000 104.000
41.08000 125.000
41.12000 118.000
41.16000 110.000
41.20000 127.000
41.24000 122.000
41.28000 100.000
41.32000 87.000
41.36000 88.000
41.40000 74.000
41.44000 83.000
41.48000 88.000
41.52000 66.000
41.56000 75.000
41.60000 76.000
41.64000 71.000
41.68000 69.000
41.72000 70.000
41.76000 66.000
41.80000 72.000
41.84000 65.000
41.88000 39.000
41.92000 64.000
41.96000 56.000
42.00000 55.000
42.04000 57.000
42.08000 68.000
42.12000 72.000
42.16000 93.000
42.20000 82.000
42.24000 81.000
42.28000 74.000
42.32000 56.000
42.36000 64.000
42.40000 66.000
42.44000 87.000
42.48000 104.000
42.52000 137.000
42.56000 205.000
42.60000 265.000
42.64000 335.000
42.68000 396.000
42.72000 386.000
42.76000 404.000
42.80000 324.000
42.84000 252.000
42.88000 190.000
42.92000 162.000
42.96000 104.000
43.00000 92.000
43.04000 69.000
43.08000 76.000
43.12000 63.000
43.16000 63.000
43.20000 50.000
43.24000 40.000
43.28000 61.000
43.32000 59.000
43.36000 52.000
43.40000 55.000
43.44000 52.000
43.48000 52.000
43.52000 34.000
43.56000 53.000
43.60000 52.000
43.64000 49.000
43.68000 44.000
43.72000 47.000
43.76000 50.000
43.80000 48.000
43.84000 67.000
43.88000 51.000
43.92000 35.000
43.96000 51.000
44.00000 52.000
44.04000 77.000
44.08000 57.000
44.12000 62.000
44.16000 86.000
44.20000 49.000
44.24000 58.000
44.28000 61.000
44.32000 76.000
44.36000 77.000
44.40000 87.000
44.44000 90.000
44.48000 77.000
44.52000 74.000
44.56000 73.000
44.60000 52.000
44.64000 72.000
44.68000 51.000
44.72000 57.000
44.76000 40.000
44.80000 57.000
44.84000 47.000
44.88000 42.000
44.92000 40.000
44.96000 47.000
45.00000 53.000
45.04000 49.000
45.08000 51.000
45.12000 51.000
45.16000 69.000
45.20000 56.000
45.24000 45.000
45.28000 45.000
45.32000 42.000
45.36000 42.000
45.40000 49.000
45.44000 43.000
45.48000 49.000
45.52000 48.000
45.56000 38.000
45.60000 58.000
45.64000 45.000
45.68000 29.000
45.72000 38.000
45.76000 59.000
45.80000 38.000
45.84000 55.000
45.88000 39.000
45.92000 47.000
45.96000 43.000
46.00000 42.000
46.04000 44.000
46.08000 43.000
46.12000 47.000
46.16000 34.000
46.20000 41.000
46.24000 55.000
46.28000 55.000
46.32000 53.000
46.36000 61.000
46.40000 70.000
46.44000 54.000
46.48000 57.000
46.52000 54.000
46.56000 65.000
46.60000 57.000
46.64000 39.000
46.68000 52.000
46.72000 44.000
46.76000 43.000
46.80000 30.000
46.84000 36.000
46.88000 44.000
46.92000 45.000
46.96000 43.000
47.00000 56.000
47.04000 33.000
47.08000 41.000
47.12000 63.000
47.16000 44.000
47.20000 37.000
47.24000 47.000
47.28000 53.000
47.32000 48.000
47.36000 44.000
47.40000 46.000
47.44000 42.000
47.48000 54.000
47.52000 45.000
47.56000 53.000
47.60000 50.000
47.64000 60.000
47.68000 37.000
47.72000 40.000
47.76000 43.000
47.80000 35.000
47.84000 41.000
47.88000 47.000
47.92000 46.000
47.96000 38.000
48.00000 51.000
48.04000 42.000
48.08000 47.000
48.12000 42.000
48.16000 48.000
48.20000 33.000
48.24000 43.000
48.28000 44.000
48.32000 41.000
48.36000 43.000
48.40000 42.000
48.44000 37.000
48.48000 56.000
48.52000 65.000
48.56000 56.000
48.60000 45.000
48.64000 40.000
48.68000 50.000
48.72000 31.000
48.76000 44.000
48.80000 44.000
48.84000 39.000
48.88000 37.000
48.92000 40.000
48.96000 38.000
49.00000 27.000
49.04000 38.000
49.08000 53.000
49.12000 45.000
49.16000 31.000
49.20000 37.000
49.24000 33.000
49.28000 48.000
49.32000 48.000
49.36000 48.000
49.40000 54.000
49.44000 46.000
49.48000 54.000
49.52000 47.000
49.56000 87.000
49.60000 114.000
49.64000 155.000
49.68000 152.000
49.72000 157.000
49.76000 145.000
49.80000 129.000
49.84000 112.000
49.88000 105.000
49.92000 102.000
49.96000 66.000
50.00000 67.000
50.04000 45.000
50.08000 76.000
50.12000 35.000
50.16000 40.000
50.20000 46.000
50.24000 48.000
50.28000 55.000
50.32000 36.000
50.36000 53.000
50.40000 40.000
50.44000 35.000
50.48000 45.000
50.52000 55.000
50.56000 31.000
50.60000 49.000
50.64000 52.000
50.68000 46.000
50.72000 57.000
50.76000 37.000
50.80000 47.000
50.84000 43.000
50.88000 42.000
50.92000 28.000
50.96000 30.000
51.00000 39.000
51.04000 32.000
51.08000 32.000
51.12000 36.000
51.16000 38.000
51.20000 29.000
51.24000 40.000
51.28000 47.000
51.32000 36.000
51.36000 35.000
51.40000 41.000
51.44000 26.000
51.48000 36.000
51.52000 38.000
51.56000 45.000
51.60000 39.000
51.64000 50.000
51.68000 45.000
51.72000 58.000
51.76000 64.000
51.80000 91.000
51.84000 109.000
51.88000 108.000
51.92000 112.000
51.96000 122.000
52.00000 91.000
52.04000 102.000
52.08000 81.000
52.12000 65.000
52.16000 61.000
52.20000 60.000
52.24000 53.000
52.28000 45.000
52.32000 50.000
52.36000 48.000
52.40000 39.000
52.44000 54.000
52.48000 43.000
52.52000 52.000
52.56000 36.000
52.60000 58.000
52.64000 51.000
52.68000 42.000
52.72000 56.000
52.76000 36.000
52.80000 52.000
52.84000 47.000
52.88000 40.000
52.92000 37.000
52.96000 45.000
53.00000 45.000
53.04000 35.000
53.08000 48.000
53.12000 36.000
53.16000 41.000
53.20000 48.000
53.24000 65.000
53.28000 63.000
53.32000 58.000
53.36000 65.000
53.40000 48.000
53.44000 52.000
53.48000 49.000
53.52000 36.000
53.56000 57.000
53.60000 50.000
53.64000 35.000
53.68000 48.000
53.72000 31.000
53.76000 44.000
53.80000 51.000
53.84000 47.000
53.88000 42.000
53.92000 55.000
53.96000 61.000
54.00000 66.000
54.04000 73.000
54.08000 69.000
54.12000 56.000
54.16000 59.000
54.20000 66.000
54.24000 57.000
54.28000 36.000
54.32000 46.000
54.36000 47.000
54.40000 43.000
54.44000 31.000
54.48000 37.000
54.52000 34.000
54.56000 41.000
54.60000 33.000
54.64000 24.000
54.68000 19.000
54.72000 27.000
54.76000 31.000
54.80000 22.000
54.84000 28.000
54.88000 22.000
54.92000 28.000
54.96000 23.000
55.00000 33.000
55.04000 44.000
55.08000 39.000
55.12000 39.000
55.16000 29.000
55.20000 29.000
55.24000 30.000
55.28000 27.000
55.32000 26.000
55.36000 22.000
55.40000 36.000
55.44000 36.000
55.48000 36.000
55.52000 43.000
55.56000 26.000
55.60000 33.000
55.64000 34.000
55.68000 31.000
55.72000 38.000
55.76000 37.000
55.80000 42.000
55.84000 43.000
55.88000 42.000
55.92000 39.000
55.96000 41.000
56.00000 41.000
56.04000 32.000
56.08000 33.000
56.12000 45.000
56.16000 40.000
56.20000 42.000
56.24000 40.000
56.28000 33.000
56.32000 39.000
56.36000 40.000
56.40000 54.000
56.44000 45.000
56.48000 48.000
56.52000 37.000
56.56000 39.000
56.60000 39.000
56.64000 39.000
56.68000 30.000
56.72000 37.000
56.76000 26.000
56.80000 33.000
56.84000 21.000
56.88000 41.000
56.92000 36.000
56.96000 21.000
57.00000 22.000
57.04000 34.000
57.08000 38.000
57.12000 30.000
57.16000 37.000
57.20000 30.000
57.24000 42.000
57.28000 35.000
57.32000 28.000
57.36000 26.000
57.40000 35.000
57.44000 25.000
57.48000 31.000
57.52000 39.000
57.56000 28.000
57.60000 30.000
57.64000 41.000
57.68000 34.000
57.72000 34.000
57.76000 39.000
57.80000 32.000
57.84000 40.000
57.88000 58.000
57.92000 39.000
57.96000 64.000
58.00000 55.000
58.04000 70.000
58.08000 65.000
58.12000 76.000
58.16000 58.000
58.20000 62.000
58.24000 54.000
58.28000 53.000
58.32000 46.000
58.36000 44.000
58.40000 43.000
58.44000 31.000
58.48000 23.000
58.52000 33.000
58.56000 39.000
58.60000 40.000
58.64000 23.000
58.68000 26.000
58.72000 40.000
58.76000 48.000
58.80000 30.000
58.84000 32.000
58.88000 27.000
58.92000 29.000
58.96000 31.000
59.00000 40.000
59.04000 27.000
59.08000 24.000
59.12000 38.000
59.16000 24.000
59.20000 34.000
59.24000 45.000
59.28000 33.000
59.32000 42.000
59.36000 43.000
59.40000 50.000
59.44000 42.000
59.48000 44.000
59.52000 42.000
59.56000 47.000
59.60000 36.000
59.64000 36.000
59.68000 39.000
59.72000 41.000
59.76000 36.000
59.80000 57.000
59.84000 66.000
59.88000 79.000
59.92000 90.000
59.96000 109.000