File: Data/XRD/r2_Cs37FA62MA01.xy
5.00000 365.000
5.04000 353.000
5.08000 404.000
5.12000 369.000
5.16000 359.000
5.20000 393.000
5.24000 337.000
5.28000 385.000
5.32000 366.000
5.36000 345.000
5.40000 352.000
5.44000 373.000
5.48000 388.000
5.52000 342.000
5.56000 294.000
5.60000 335.000
5.64000 342.000
5.68000 339.000
5.72000 358.000
5.76000 343.000
5.80000 337.000
5.84000 325.000
5.88000 299.000
5.92000 303.000
5.96000 296.000
6.00000 282.000
6.04000 307.000
6.08000 308.000
6.12000 286.000
6.16000 290.000
6.20000 310.000
6.24000 291.000
6.28000 262.000
6.32000 286.000
6.36000 306.000
6.40000 312.000
6.44000 279.000
6.48000 284.000
6.52000 285.000
6.56000 255.000
6.60000 270.000
6.64000 292.000
6.68000 282.000
6.72000 282.000
6.76000 262.000
6.80000 274.000
6.84000 254.000
6.88000 261.000
6.92000 285.000
6.96000 257.000
7.00000 259.000
7.04000 249.000
7.08000 253.000
7.12000 255.000
7.16000 255.000
7.20000 260.000
7.24000 238.000
7.28000 240.000
7.32000 256.000
7.36000 235.000
7.40000 231.000
7.44000 238.000
7.48000 280.000
7.52000 235.000
7.56000 222.000
7.60000 234.000
7.64000 251.000
7.68000 242.000
7.72000 257.000
7.76000 244.000
7.80000 223.000
7.84000 236.000
7.88000 247.000
7.92000 220.000
7.96000 255.000
8.00000 204.000
8.04000 250.000
8.08000 223.000
8.12000 231.000
8.16000 211.000
8.20000 221.000
8.24000 230.000
8.28000 231.000
8.32000 243.000
8.36000 234.000
8.40000 215.000
8.44000 213.000
8.48000 214.000
8.52000 216.000
8.56000 200.000
8.60000 220.000
8.64000 221.000
8.68000 205.000
8.72000 212.000
8.76000 204.000
8.80000 232.000
8.84000 217.000
8.88000 219.000
8.92000 239.000
8.96000 190.000
9.00000 207.000
9.04000 206.000
9.08000 206.000
9.12000 227.000
9.16000 215.000
9.20000 208.000
9.24000 225.000
9.28000 210.000
9.32000 223.000
9.36000 236.000
9.40000 237.000
9.44000 249.000
9.48000 230.000
9.52000 261.000
9.56000 272.000
9.60000 309.000
9.64000 306.000
9.68000 316.000
9.72000 369.000
9.76000 396.000
9.80000 469.000
9.84000 382.000
9.88000 417.000
9.92000 337.000
9.96000 312.000
10.00000 267.000
10.04000 230.000
10.08000 196.000
10.12000 191.000
10.16000 230.000
10.20000 181.000
10.24000 171.000
10.28000 176.000
10.32000 187.000
10.36000 189.000
10.40000 169.000
10.44000 186.000
10.48000 176.000
10.52000 182.000
10.56000 188.000
10.60000 168.000
10.64000 164.000
10.68000 169.000
10.72000 145.000
10.76000 166.000
10.80000 195.000
10.84000 173.000
10.88000 189.000
10.92000 161.000
10.96000 173.000
11.00000 184.000
11.04000 163.000
11.08000 160.000
11.12000 160.000
11.16000 178.000
11.20000 167.000
11.24000 186.000
11.28000 180.000
11.32000 163.000
11.36000 191.000
11.40000 161.000
11.44000 151.000
11.48000 137.000
11.52000 159.000
11.56000 191.000
11.60000 146.000
11.64000 159.000
11.68000 182.000
11.72000 176.000
11.76000 180.000
11.80000 181.000
11.84000 169.000
11.88000 187.000
11.92000 164.000
11.96000 172.000
12.00000 175.000
12.04000 150.000
12.08000 155.000
12.12000 176.000
12.16000 172.000
12.20000 168.000
12.24000 183.000
12.28000 211.000
12.32000 226.000
12.36000 238.000
12.40000 283.000
12.44000 277.000
12.48000 353.000
12.52000 420.000
12.56000 515.000
12.60000 632.000
12.64000 592.000
12.68000 583.000
12.72000 523.000
12.76000 409.000
12.80000 328.000
12.84000 286.000
12.88000 292.000
12.92000 287.000
12.96000 281.000
13.00000 321.000
13.04000 336.000
13.08000 325.000
13.12000 275.000
13.16000 235.000
13.20000 194.000
13.24000 213.000
13.28000 204.000
13.32000 187.000
13.36000 212.000
13.40000 269.000
13.44000 262.000
13.48000 329.000
13.52000 327.000
13.56000 414.000
13.60000 447.000
13.64000 605.000
13.68000 701.000
13.72000 855.000
13.76000 1037.000
13.80000 1313.000
13.84000 1796.000
13.88000 2149.000
13.92000 2535.000
13.96000 2509.000
14.00000 1887.000
14.04000 1158.000
14.08000 689.000
14.12000 457.000
14.16000 324.000
14.20000 228.000
14.24000 203.000
14.28000 127.000
14.32000 139.000
14.36000 155.000
14.40000 144.000
14.44000 157.000
14.48000 137.000
14.52000 138.000
14.56000 120.000
14.60000 133.000
14.64000 128.000
14.68000 115.000
14.72000 141.000
14.76000 126.000
14.80000 146.000
14.84000 132.000
14.88000 142.000
14.92000 114.000
14.96000 129.000
15.00000 106.000
15.04000 106.000
15.08000 130.000
15.12000 101.000
15.16000 111.000
15.20000 120.000
15.24000 118.000
15.28000 130.000
15.32000 108.000
15.36000 122.000
15.40000 111.000
15.44000 118.000
15.48000 104.000
15.52000 122.000
15.56000 114.000
15.60000 123.000
15.64000 120.000
15.68000 115.000
15.72000 121.000
15.76000 97.000
15.80000 100.000
15.84000 110.000
15.88000 97.000
15.92000 118.000
15.96000 123.000
16.00000 97.000
16.04000 99.000
16.08000 135.000
16.12000 100.000
16.16000 100.000
16.20000 132.000
16.24000 112.000
16.28000 100.000
16.32000 125.000
16.36000 101.000
16.40000 132.000
16.44000 106.000
16.48000 105.000
16.52000 107.000
16.56000 131.000
16.60000 95.000
16.64000 107.000
16.68000 119.000
16.72000 122.000
16.76000 142.000
16.80000 118.000
16.84000 124.000
16.88000 153.000
16.92000 144.000
16.96000 159.000
17.00000 162.000
17.04000 126.000
17.08000 114.000
17.12000 114.000
17.16000 133.000
17.20000 127.000
17.24000 125.000
17.28000 106.000
17.32000 131.000
17.36000 114.000
17.40000 123.000
17.44000 141.000
17.48000 132.000
17.52000 113.000
17.56000 155.000
17.60000 147.000
17.64000 174.000
17.68000 185.000
17.72000 175.000
17.76000 143.000
17.80000 125.000
17.84000 115.000
17.88000 127.000
17.92000 105.000
17.96000 96.000
18.00000 95.000
18.04000 109.000
18.08000 99.000
18.12000 97.000
18.16000 101.000
18.20000 101.000
18.24000 88.000
18.28000 115.000
18.32000 93.000
18.36000 103.000
18.40000 103.000
18.44000 116.000
18.48000 109.000
18.52000 91.000
18.56000 102.000
18.60000 99.000
18.64000 117.000
18.68000 95.000
18.72000 96.000
18.76000 108.000
18.80000 93.000
18.84000 111.000
18.88000 95.000
18.92000 99.000
18.96000 102.000
19.00000 99.000
19.04000 94.000
19.08000 89.000
19.12000 97.000
19.16000 108.000
19.20000 109.000
19.24000 104.000
19.28000 138.000
19.32000 91.000
19.36000 126.000
19.40000 118.000
19.44000 115.000
19.48000 148.000
19.52000 147.000
19.56000 181.000
19.60000 214.000
19.64000 268.000
19.68000 300.000
19.72000 360.000
19.76000 370.000
19.80000 305.000
19.84000 241.000
19.88000 204.000
19.92000 147.000
19.96000 133.000
20.00000 108.000
20.04000 112.000
20.08000 103.000
20.12000 104.000
20.16000 102.000
20.20000 102.000
20.24000 114.000
20.28000 102.000
20.32000 84.000
20.36000 101.000
20.40000 90.000
20.44000 95.000
20.48000 85.000
20.52000 92.000
20.56000 88.000
20.60000 96.000
20.64000 120.000
20.68000 114.000
20.72000 105.000
20.76000 98.000
20.80000 106.000
20.84000 117.000
20.88000 141.000
20.92000 131.000
20.96000 158.000
21.00000 138.000
21.04000 115.000
21.08000 134.000
21.12000 119.000
21.16000 104.000
21.20000 105.000
21.24000 108.000
21.28000 98.000
21.32000 82.000
21.36000 117.000
21.40000 105.000
21.44000 123.000
21.48000 127.000
21.52000 105.000
21.56000 133.000
21.60000 114.000
21.64000 132.000
21.68000 152.000
21.72000 175.000
21.76000 135.000
21.80000 123.000
21.84000 132.000
21.88000 104.000
21.92000 118.000
21.96000 122.000
22.00000 99.000
22.04000 107.000
22.08000 92.000
22.12000 98.000
22.16000 90.000
22.20000 104.000
22.24000 118.000
22.28000 107.000
22.32000 110.000
22.36000 122.000
22.40000 117.000
22.44000 131.000
22.48000 156.000
22.52000 179.000
22.56000 240.000
22.60000 262.000
22.64000 281.000
22.68000 271.000
22.72000 261.000
22.76000 185.000
22.80000 176.000
22.84000 145.000
22.88000 132.000
22.92000 127.000
22.96000 109.000
23.00000 93.000
23.04000 97.000
23.08000 97.000
23.12000 93.000
23.16000 68.000
23.20000 94.000
23.24000 110.000
23.28000 95.000
23.32000 116.000
23.36000 84.000
23.40000 116.000
23.44000 80.000
23.48000 95.000
23.52000 80.000
23.56000 96.000
23.60000 106.000
23.64000 103.000
23.68000 92.000
23.72000 89.000
23.76000 103.000
23.80000 105.000
23.84000 109.000
23.88000 99.000
23.92000 106.000
23.96000 127.000
24.00000 121.000
24.04000 173.000
24.08000 203.000
24.12000 254.000
24.16000 343.000
24.20000 442.000
24.24000 408.000
24.28000 388.000
24.32000 361.000
24.36000 252.000
24.40000 181.000
24.44000 137.000
24.48000 121.000
24.52000 109.000
24.56000 87.000
24.60000 107.000
24.64000 91.000
24.68000 81.000
24.72000 92.000
24.76000 89.000
24.80000 105.000
24.84000 87.000
24.88000 87.000
24.92000 101.000
24.96000 94.000
25.00000 110.000
25.04000 113.000
25.08000 130.000
25.12000 175.000
25.16000 156.000
25.20000 153.000
25.24000 203.000
25.28000 197.000
25.32000 234.000
25.36000 255.000
25.40000 221.000
25.44000 196.000
25.48000 182.000
25.52000 189.000
25.56000 236.000
25.60000 294.000
25.64000 283.000
25.68000 355.000
25.72000 307.000
25.76000 269.000
25.80000 205.000
25.84000 145.000
25.88000 142.000
25.92000 125.000
25.96000 144.000
26.00000 132.000
26.04000 145.000
26.08000 157.000
26.12000 191.000
26.16000 225.000
26.20000 267.000
26.24000 330.000
26.28000 351.000
26.32000 410.000
26.36000 387.000
26.40000 379.000
26.44000 366.000
26.48000 370.000
26.52000 319.000
26.56000 234.000
26.60000 184.000
26.64000 161.000
26.68000 131.000
26.72000 125.000
26.76000 124.000
26.80000 116.000
26.84000 142.000
26.88000 151.000
26.92000 208.000
26.96000 207.000
27.00000 298.000
27.04000 347.000
27.08000 428.000
27.12000 446.000
27.16000 439.000
27.20000 394.000
27.24000 277.000
27.28000 211.000
27.32000 215.000
27.36000 231.000
27.40000 255.000
27.44000 209.000
27.48000 237.000
27.52000 216.000
27.56000 202.000
27.60000 172.000
27.64000 159.000
27.68000 139.000
27.72000 156.000
27.76000 181.000
27.80000 205.000
27.84000 330.000
27.88000 468.000
27.92000 612.000
27.96000 876.000
28.00000 1218.000
28.04000 1554.000
28.08000 1808.000
28.12000 1560.000
28.16000 1241.000
28.20000 793.000
28.24000 509.000
28.28000 332.000
28.32000 240.000
28.36000 195.000
28.40000 161.000
28.44000 128.000
28.48000 127.000
28.52000 102.000
28.56000 107.000
28.60000 91.000
28.64000 95.000
28.68000 81.000
28.72000 98.000
28.76000 77.000
28.80000 84.000
28.84000 105.000
28.88000 80.000
28.92000 65.000
28.96000 72.000
29.00000 96.000
29.04000 99.000
29.08000 73.000
29.12000 83.000
29.16000 82.000
29.20000 87.000
29.24000 93.000
29.28000 98.000
29.32000 94.000
29.36000 112.000
29.40000 109.000
29.44000 101.000
29.48000 85.000
29.52000 98.000
29.56000 86.000
29.60000 84.000
29.64000 101.000
29.68000 88.000
29.72000 97.000
29.76000 77.000
29.80000 64.000
29.84000 93.000
29.88000 69.000
29.92000 71.000
29.96000 62.000
30.00000 63.000
30.04000 79.000
30.08000 83.000
30.12000 90.000
30.16000 69.000
30.20000 89.000
30.24000 77.000
30.28000 75.000
30.32000 73.000
30.36000 73.000
30.40000 94.000
30.44000 92.000
30.48000 72.000
30.52000 82.000
30.56000 90.000
30.60000 72.000
30.64000 75.000
30.68000 71.000
30.72000 78.000
30.76000 82.000
30.80000 91.000
30.84000 90.000
30.88000 81.000
30.92000 88.000
30.96000 96.000
31.00000 93.000
31.04000 99.000
31.08000 126.000
31.12000 174.000
31.16000 200.000
31.20000 232.000
31.24000 348.000
31.28000 459.000
31.32000 655.000
31.36000 828.000
31.40000 1028.000
31.44000 1164.000
31.48000 1182.000
31.52000 1045.000
31.56000 751.000
31.60000 521.000
31.64000 351.000
31.68000 190.000
31.72000 168.000
31.76000 126.000
31.80000 107.000
31.84000 100.000
31.88000 77.000
31.92000 73.000
31.96000 76.000
32.00000 82.000
32.04000 93.000
32.08000 118.000
32.12000 100.000
32.16000 84.000
32.20000 90.000
32.24000 85.000
32.28000 87.000
32.32000 81.000
32.36000 86.000
32.40000 91.000
32.44000 87.000
32.48000 97.000
32.52000 106.000
32.56000 110.000
32.60000 128.000
32.64000 111.000
32.68000 99.000
32.72000 82.000
32.76000 78.000
32.80000 56.000
32.84000 67.000
32.88000 64.000
32.92000 51.000
32.96000 60.000
33.00000 49.000
33.04000 65.000
33.08000 72.000
33.12000 66.000
33.16000 84.000
33.20000 100.000
33.24000 94.000
33.28000 115.000
33.32000 122.000
33.36000 94.000
33.40000 96.000
33.44000 88.000
33.48000 64.000
33.52000 58.000
33.56000 44.000
33.60000 46.000
33.64000 59.000
33.68000 56.000
33.72000 68.000
33.76000 67.000
33.80000 53.000
33.84000 53.000
33.88000 61.000
33.92000 49.000
33.96000 62.000
34.00000 65.000
34.04000 62.000
34.08000 70.000
34.12000 63.000
34.16000 65.000
34.20000 63.000
34.24000 66.000
34.28000 83.000
34.32000 83.000
34.36000 75.000
34.40000 99.000
34.44000 107.000
34.48000 129.000
34.52000 155.000
34.56000 164.000
34.60000 148.000
34.64000 135.000
34.68000 136.000
34.72000 117.000
34.76000 74.000
34.80000 58.000
34.84000 74.000
34.88000 48.000
34.92000 58.000
34.96000 71.000
35.00000 55.000
35.04000 58.000
35.08000 59.000
35.12000 67.000
35.16000 72.000
35.20000 63.000
35.24000 74.000
35.28000 74.000
35.32000 70.000
35.36000 74.000
35.40000 65.000
35.44000 35.000
35.48000 59.000
35.52000 48.000
35.56000 59.000
35.60000 67.000
35.64000 77.000
35.68000 69.000
35.72000 75.000
35.76000 83.000
35.80000 89.000
35.84000 79.000
35.88000 79.000
35.92000 70.000
35.96000 81.000
36.00000 95.000
36.04000 100.000
36.08000 94.000
36.12000 73.000
36.16000 74.000
36.20000 72.000
36.24000 63.000
36.28000 54.000
36.32000 60.000
36.36000 63.000
36.40000 53.000
36.44000 74.000
36.48000 63.000
36.52000 63.000
36.56000 63.000
36.60000 61.000
36.64000 74.000
36.68000 69.000
36.72000 79.000
36.76000 65.000
36.80000 65.000
36.84000 61.000
36.88000 53.000
36.92000 47.000
36.96000 56.000
37.00000 55.000
37.04000 67.000
37.08000 63.000
37.12000 47.000
37.16000 54.000
37.20000 46.000
37.24000 65.000
37.28000 59.000
37.32000 83.000
37.36000 99.000
37.40000 133.000
37.44000 153.000
37.48000 164.000
37.52000 186.000
37.56000 200.000
37.60000 198.000
37.64000 180.000
37.68000 173.000
37.72000 180.000
37.76000 127.000
37.80000 130.000
37.84000 120.000
37.88000 91.000
37.92000 68.000
37.96000 68.000
38.00000 38.000
38.04000 51.000
38.08000 43.000
38.12000 63.000
38.16000 58.000
38.20000 55.000
38.24000 57.000
38.28000 64.000
38.32000 76.000
38.36000 65.000
38.40000 65.000
38.44000 66.000
38.48000 58.000
38.52000 62.000
38.56000 79.000
38.60000 55.000
38.64000 57.000
38.68000 60.000
38.72000 57.000
38.76000 61.000
38.80000 46.000
38.84000 65.000
38.88000 56.000
38.92000 63.000
38.96000 53.000
39.00000 53.000
39.04000 50.000
39.08000 57.000
39.12000 61.000
39.16000 77.000
39.20000 74.000
39.24000 73.000
39.28000 85.000
39.32000 86.000
39.36000 78.000
39.40000 93.000
39.44000 113.000
39.48000 110.000
39.52000 113.000
39.56000 107.000
39.60000 116.000
39.64000 93.000
39.68000 86.000
39.72000 86.000
39.76000 81.000
39.80000 110.000
39.84000 99.000
39.88000 134.000
39.92000 174.000
39.96000 222.000
40.00000 317.000
40.04000 452.000
40.08000 602.000
40.12000 638.000
40.16000 566.000
40.20000 460.000
40.24000 394.000
40.28000 273.000
40.32000 173.000
40.36000 109.000
40.40000 131.000
40.44000 100.000
40.48000 121.000
40.52000 134.000
40.56000 116.000
40.60000 106.000
40.64000 106.000
40.68000 93.000
40.72000 94.000
40.76000 69.000
40.80000 85.000
40.84000 81.000
40.88000 72.000
40.92000 70.000
40.96000 74.000
41.00000 99.000
41.04000 124.000
41.08000 125.000
41.12000 97.000
41.16000 117.000
41.20000 95.000
41.24000 116.000
41.28000 88.000
41.32000 72.000
41.36000 63.000
41.40000 60.000
41.44000 76.000
41.48000 62.000
41.52000 72.000
41.56000 69.000
41.60000 71.000
41.64000 58.000
41.68000 72.000
41.72000 60.000
41.76000 63.000
41.80000 53.000
41.84000 63.000
41.88000 80.000
41.92000 55.000
41.96000 59.000
42.00000 75.000
42.04000 60.000
42.08000 75.000
42.12000 92.000
42.16000 95.000
42.20000 109.000
42.24000 88.000
42.28000 78.000
42.32000 78.000
42.36000 78.000
42.40000 83.000
42.44000 104.000
42.48000 122.000
42.52000 173.000
42.56000 226.000
42.60000 346.000
42.64000 411.000
42.68000 421.000
42.72000 353.000
42.76000 271.000
42.80000 244.000
42.84000 175.000
42.88000 139.000
42.92000 100.000
42.96000 87.000
43.00000 63.000
43.04000 61.000
43.08000 76.000
43.12000 45.000
43.16000 35.000
43.20000 41.000
43.24000 34.000
43.28000 47.000
43.32000 44.000
43.36000 51.000
43.40000 41.000
43.44000 54.000
43.48000 48.000
43.52000 44.000
43.56000 45.000
43.60000 60.000
43.64000 46.000
43.68000 44.000
43.72000 42.000
43.76000 45.000
43.80000 54.000
43.84000 54.000
43.88000 56.000
43.92000 53.000
43.96000 56.000
44.00000 54.000
44.04000 64.000
44.08000 55.000
44.12000 60.000
44.16000 52.000
44.20000 64.000
44.24000 92.000
44.28000 71.000
44.32000 70.000
44.36000 84.000
44.40000 88.000
44.44000 96.000
44.48000 82.000
44.52000 71.000
44.56000 61.000
44.60000 72.000
44.64000 58.000
44.68000 50.000
44.72000 50.000
44.76000 33.000
44.80000 39.000
44.84000 45.000
44.88000 54.000
44.92000 43.000
44.96000 42.000
45.00000 50.000
45.04000 42.000
45.08000 55.000
45.12000 56.000
45.16000 64.000
45.20000 52.000
45.24000 51.000
45.28000 43.000
45.32000 40.000
45.36000 53.000
45.40000 44.000
45.44000 44.000
45.48000 48.000
45.52000 33.000
45.56000 27.000
45.60000 46.000
45.64000 43.000
45.68000 40.000
45.72000 39.000
45.76000 49.000
45.80000 44.000
45.84000 43.000
45.88000 60.000
45.92000 47.000
45.96000 36.000
46.00000 44.000
46.04000 53.000
46.08000 37.000
46.12000 48.000
46.16000 63.000
46.20000 49.000
46.24000 49.000
46.28000 60.000
46.32000 71.000
46.36000 58.000
46.40000 69.000
46.44000 85.000
46.48000 65.000
46.52000 66.000
46.56000 51.000
46.60000 57.000
46.64000 41.000
46.68000 39.000
46.72000 40.000
46.76000 50.000
46.80000 40.000
46.84000 41.000
46.88000 51.000
46.92000 40.000
46.96000 50.000
47.00000 48.000
47.04000 57.000
47.08000 48.000
47.12000 60.000
47.16000 48.000
47.20000 47.000
47.24000 42.000
47.28000 66.000
47.32000 57.000
47.36000 59.000
47.40000 56.000
47.44000 53.000
47.48000 51.000
47.52000 61.000
47.56000 44.000
47.60000 44.000
47.64000 45.000
47.68000 40.000
47.72000 42.000
47.76000 33.000
47.80000 52.000
47.84000 33.000
47.88000 44.000
47.92000 45.000
47.96000 44.000
48.00000 53.000
48.04000 47.000
48.08000 49.000
48.12000 53.000
48.16000 48.000
48.20000 51.000
48.24000 38.000
48.28000 42.000
48.32000 45.000
48.36000 57.000
48.40000 41.000
48.44000 52.000
48.48000 70.000
48.52000 56.000
48.56000 50.000
48.60000 55.000
48.64000 52.000
48.68000 40.000
48.72000 50.000
48.76000 35.000
48.80000 40.000
48.84000 36.000
48.88000 43.000
48.92000 30.000
48.96000 37.000
49.00000 32.000
49.04000 36.000
49.08000 48.000
49.12000 39.000
49.16000 52.000
49.20000 32.000
49.24000 37.000
49.28000 55.000
49.32000 51.000
49.36000 47.000
49.40000 47.000
49.44000 63.000
49.48000 63.000
49.52000 90.000
49.56000 101.000
49.60000 140.000
49.64000 137.000
49.68000 167.000
49.72000 145.000
49.76000 113.000
49.80000 95.000
49.84000 77.000
49.88000 86.000
49.92000 77.000
49.96000 53.000
50.00000 51.000
50.04000 48.000
50.08000 55.000
50.12000 59.000
50.16000 53.000
50.20000 35.000
50.24000 40.000
50.28000 51.000
50.32000 40.000
50.36000 42.000
50.40000 50.000
50.44000 37.000
50.48000 32.000
50.52000 42.000
50.56000 49.000
50.60000 49.000
50.64000 48.000
50.68000 56.000
50.72000 47.000
50.76000 46.000
50.80000 51.000
50.84000 41.000
50.88000 28.000
50.92000 31.000
50.96000 33.000
51.00000 35.000
51.04000 40.000
51.08000 36.000
51.12000 32.000
51.16000 42.000
51.20000 37.000
51.24000 33.000
51.28000 37.000
51.32000 34.000
51.36000 33.000
51.40000 32.000
51.44000 44.000
51.48000 30.000
51.52000 46.000
51.56000 48.000
51.60000 46.000
51.64000 48.000
51.68000 61.000
51.72000 66.000
51.76000 106.000
51.80000 136.000
51.84000 123.000
51.88000 117.000
51.92000 103.000
51.96000 106.000
52.00000 90.000
52.04000 85.000
52.08000 62.000
52.12000 71.000
52.16000 50.000
52.20000 45.000
52.24000 51.000
52.28000 52.000
52.32000 48.000
52.36000 51.000
52.40000 56.000
52.44000 38.000
52.48000 49.000
52.52000 40.000
52.56000 39.000
52.60000 37.000
52.64000 51.000
52.68000 45.000
52.72000 55.000
52.76000 47.000
52.80000 43.000
52.84000 43.000
52.88000 51.000
52.92000 52.000
52.96000 33.000
53.00000 42.000
53.04000 44.000
53.08000 40.000
53.12000 64.000
53.16000 75.000
53.20000 59.000
53.24000 81.000
53.28000 49.000
53.32000 69.000
53.36000 63.000
53.40000 60.000
53.44000 67.000
53.48000 50.000
53.52000 78.000
53.56000 53.000
53.60000 41.000
53.64000 46.000
53.68000 42.000
53.72000 44.000
53.76000 39.000
53.80000 41.000
53.84000 48.000
53.88000 57.000
53.92000 67.000
53.96000 64.000
54.00000 67.000
54.04000 87.000
54.08000 72.000
54.12000 60.000
54.16000 59.000
54.20000 63.000
54.24000 45.000
54.28000 50.000
54.32000 42.000
54.36000 46.000
54.40000 31.000
54.44000 40.000
54.48000 35.000
54.52000 31.000
54.56000 20.000
54.60000 34.000
54.64000 26.000
54.68000 25.000
54.72000 29.000
54.76000 32.000
54.80000 31.000
54.84000 22.000
54.88000 26.000
54.92000 35.000
54.96000 33.000
55.00000 24.000
55.04000 19.000
55.08000 27.000
55.12000 27.000
55.16000 41.000
55.20000 22.000
55.24000 35.000
55.28000 27.000
55.32000 20.000
55.36000 33.000
55.40000 36.000
55.44000 28.000
55.48000 40.000
55.52000 39.000
55.56000 41.000
55.60000 36.000
55.64000 38.000
55.68000 49.000
55.72000 31.000
55.76000 45.000
55.80000 41.000
55.84000 41.000
55.88000 37.000
55.92000 38.000
55.96000 33.000
56.00000 36.000
56.04000 42.000
56.08000 48.000
56.12000 32.000
56.16000 33.000
56.20000 41.000
56.24000 43.000
56.28000 40.000
56.32000 45.000
56.36000 44.000
56.40000 42.000
56.44000 40.000
56.48000 52.000
56.52000 46.000
56.56000 47.000
56.60000 39.000
56.64000 32.000
56.68000 34.000
56.72000 35.000
56.76000 39.000
56.80000 26.000
56.84000 36.000
56.88000 30.000
56.92000 40.000
56.96000 37.000
57.00000 31.000
57.04000 37.000
57.08000 40.000
57.12000 35.000
57.16000 37.000
57.20000 34.000
57.24000 26.000
57.28000 29.000
57.32000 28.000
57.36000 35.000
57.40000 30.000
57.44000 29.000
57.48000 29.000
57.52000 40.000
57.56000 32.000
57.60000 37.000
57.64000 34.000
57.68000 42.000
57.72000 34.000
57.76000 33.000
57.80000 40.000
57.84000 35.000
57.88000 52.000
57.92000 48.000
57.96000 48.000
58.00000 83.000
58.04000 83.000
58.08000 81.000
58.12000 72.000
58.16000 52.000
58.20000 52.000
58.24000 52.000
58.28000 42.000
58.32000 48.000
58.36000 43.000
58.40000 40.000
58.44000 39.000
58.48000 40.000
58.52000 56.000
58.56000 35.000
58.60000 31.000
58.64000 32.000
58.68000 37.000
58.72000 39.000
58.76000 35.000
58.80000 33.000
58.84000 29.000
58.88000 32.000
58.92000 36.000
58.96000 26.000
59.00000 30.000
59.04000 35.000
59.08000 38.000
59.12000 49.000
59.16000 28.000
59.20000 37.000
59.24000 55.000
59.28000 34.000
59.32000 37.000
59.36000 24.000
59.40000 41.000
59.44000 37.000
59.48000 50.000
59.52000 52.000
59.56000 51.000
59.60000 48.000
59.64000 41.000
59.68000 51.000
59.72000 54.000
59.76000 61.000
59.80000 56.000
59.84000 67.000
59.88000 89.000
59.92000 121.000
59.96000 146.000