File: Data/XRD/r3_Cs75FA0MA25.xy
5.00000 267.000
5.04000 277.000
5.08000 247.000
5.12000 280.000
5.16000 249.000
5.20000 265.000
5.24000 266.000
5.28000 266.000
5.32000 251.000
5.36000 231.000
5.40000 268.000
5.44000 256.000
5.48000 258.000
5.52000 224.000
5.56000 267.000
5.60000 239.000
5.64000 259.000
5.68000 213.000
5.72000 228.000
5.76000 241.000
5.80000 217.000
5.84000 236.000
5.88000 228.000
5.92000 219.000
5.96000 220.000
6.00000 211.000
6.04000 211.000
6.08000 239.000
6.12000 219.000
6.16000 231.000
6.20000 231.000
6.24000 206.000
6.28000 225.000
6.32000 223.000
6.36000 204.000
6.40000 206.000
6.44000 207.000
6.48000 206.000
6.52000 226.000
6.56000 231.000
6.60000 223.000
6.64000 204.000
6.68000 215.000
6.72000 207.000
6.76000 199.000
6.80000 200.000
6.84000 209.000
6.88000 191.000
6.92000 167.000
6.96000 195.000
7.00000 201.000
7.04000 196.000
7.08000 182.000
7.12000 180.000
7.16000 179.000
7.20000 176.000
7.24000 165.000
7.28000 188.000
7.32000 176.000
7.36000 190.000
7.40000 176.000
7.44000 148.000
7.48000 184.000
7.52000 187.000
7.56000 175.000
7.60000 186.000
7.64000 165.000
7.68000 190.000
7.72000 165.000
7.76000 170.000
7.80000 192.000
7.84000 148.000
7.88000 172.000
7.92000 183.000
7.96000 171.000
8.00000 186.000
8.04000 164.000
8.08000 185.000
8.12000 154.000
8.16000 156.000
8.20000 161.000
8.24000 156.000
8.28000 155.000
8.32000 157.000
8.36000 168.000
8.40000 176.000
8.44000 169.000
8.48000 170.000
8.52000 146.000
8.56000 180.000
8.60000 165.000
8.64000 146.000
8.68000 140.000
8.72000 172.000
8.76000 179.000
8.80000 182.000
8.84000 156.000
8.88000 139.000
8.92000 161.000
8.96000 143.000
9.00000 166.000
9.04000 167.000
9.08000 158.000
9.12000 164.000
9.16000 174.000
9.20000 192.000
9.24000 210.000
9.28000 187.000
9.32000 187.000
9.36000 222.000
9.40000 239.000
9.44000 226.000
9.48000 256.000
9.52000 306.000
9.56000 332.000
9.60000 376.000
9.64000 413.000
9.68000 528.000
9.72000 601.000
9.76000 645.000
9.80000 610.000
9.84000 576.000
9.88000 513.000
9.92000 441.000
9.96000 376.000
10.00000 320.000
10.04000 239.000
10.08000 199.000
10.12000 166.000
10.16000 175.000
10.20000 163.000
10.24000 175.000
10.28000 133.000
10.32000 137.000
10.36000 142.000
10.40000 151.000
10.44000 136.000
10.48000 144.000
10.52000 128.000
10.56000 123.000
10.60000 112.000
10.64000 150.000
10.68000 137.000
10.72000 115.000
10.76000 122.000
10.80000 118.000
10.84000 135.000
10.88000 125.000
10.92000 131.000
10.96000 112.000
11.00000 140.000
11.04000 119.000
11.08000 110.000
11.12000 130.000
11.16000 116.000
11.20000 111.000
11.24000 117.000
11.28000 117.000
11.32000 117.000
11.36000 128.000
11.40000 98.000
11.44000 124.000
11.48000 110.000
11.52000 116.000
11.56000 123.000
11.60000 112.000
11.64000 107.000
11.68000 114.000
11.72000 100.000
11.76000 111.000
11.80000 100.000
11.84000 113.000
11.88000 113.000
11.92000 134.000
11.96000 99.000
12.00000 109.000
12.04000 109.000
12.08000 116.000
12.12000 121.000
12.16000 106.000
12.20000 126.000
12.24000 133.000
12.28000 122.000
12.32000 136.000
12.36000 129.000
12.40000 144.000
12.44000 158.000
12.48000 163.000
12.52000 218.000
12.56000 233.000
12.60000 280.000
12.64000 279.000
12.68000 274.000
12.72000 313.000
12.76000 264.000
12.80000 253.000
12.84000 279.000
12.88000 305.000
12.92000 300.000
12.96000 377.000
13.00000 456.000
13.04000 349.000
13.08000 320.000
13.12000 265.000
13.16000 191.000
13.20000 144.000
13.24000 164.000
13.28000 142.000
13.32000 120.000
13.36000 131.000
13.40000 107.000
13.44000 118.000
13.48000 115.000
13.52000 126.000
13.56000 131.000
13.60000 111.000
13.64000 119.000
13.68000 114.000
13.72000 115.000
13.76000 123.000
13.80000 134.000
13.84000 158.000
13.88000 177.000
13.92000 183.000
13.96000 219.000
14.00000 265.000
14.04000 326.000
14.08000 367.000
14.12000 502.000
14.16000 549.000
14.20000 522.000
14.24000 449.000
14.28000 371.000
14.32000 263.000
14.36000 194.000
14.40000 138.000
14.44000 143.000
14.48000 111.000
14.52000 101.000
14.56000 119.000
14.60000 107.000
14.64000 125.000
14.68000 102.000
14.72000 94.000
14.76000 91.000
14.80000 77.000
14.84000 75.000
14.88000 97.000
14.92000 89.000
14.96000 82.000
15.00000 86.000
15.04000 86.000
15.08000 77.000
15.12000 99.000
15.16000 73.000
15.20000 87.000
15.24000 94.000
15.28000 86.000
15.32000 77.000
15.36000 87.000
15.40000 89.000
15.44000 69.000
15.48000 82.000
15.52000 90.000
15.56000 85.000
15.60000 82.000
15.64000 91.000
15.68000 71.000
15.72000 94.000
15.76000 88.000
15.80000 76.000
15.84000 77.000
15.88000 85.000
15.92000 64.000
15.96000 60.000
16.00000 79.000
16.04000 83.000
16.08000 100.000
16.12000 76.000
16.16000 81.000
16.20000 62.000
16.24000 66.000
16.28000 97.000
16.32000 82.000
16.36000 96.000
16.40000 89.000
16.44000 77.000
16.48000 93.000
16.52000 88.000
16.56000 105.000
16.60000 92.000
16.64000 137.000
16.68000 108.000
16.72000 146.000
16.76000 176.000
16.80000 179.000
16.84000 198.000
16.88000 189.000
16.92000 184.000
16.96000 151.000
17.00000 162.000
17.04000 127.000
17.08000 132.000
17.12000 119.000
17.16000 116.000
17.20000 98.000
17.24000 92.000
17.28000 106.000
17.32000 104.000
17.36000 120.000
17.40000 109.000
17.44000 127.000
17.48000 143.000
17.52000 187.000
17.56000 171.000
17.60000 200.000
17.64000 180.000
17.68000 148.000
17.72000 127.000
17.76000 125.000
17.80000 100.000
17.84000 96.000
17.88000 85.000
17.92000 82.000
17.96000 88.000
18.00000 60.000
18.04000 72.000
18.08000 94.000
18.12000 84.000
18.16000 90.000
18.20000 73.000
18.24000 77.000
18.28000 58.000
18.32000 70.000
18.36000 65.000
18.40000 74.000
18.44000 64.000
18.48000 57.000
18.52000 65.000
18.56000 66.000
18.60000 56.000
18.64000 78.000
18.68000 49.000
18.72000 77.000
18.76000 65.000
18.80000 58.000
18.84000 57.000
18.88000 62.000
18.92000 79.000
18.96000 65.000
19.00000 61.000
19.04000 55.000
19.08000 76.000
19.12000 64.000
19.16000 66.000
19.20000 80.000
19.24000 64.000
19.28000 69.000
19.32000 89.000
19.36000 66.000
19.40000 82.000
19.44000 91.000
19.48000 99.000
19.52000 96.000
19.56000 111.000
19.60000 89.000
19.64000 109.000
19.68000 89.000
19.72000 92.000
19.76000 98.000
19.80000 95.000
19.84000 96.000
19.88000 108.000
19.92000 110.000
19.96000 120.000
20.00000 113.000
20.04000 136.000
20.08000 127.000
20.12000 133.000
20.16000 143.000
20.20000 113.000
20.24000 123.000
20.28000 95.000
20.32000 113.000
20.36000 88.000
20.40000 78.000
20.44000 77.000
20.48000 73.000
20.52000 90.000
20.56000 82.000
20.60000 73.000
20.64000 78.000
20.68000 73.000
20.72000 86.000
20.76000 80.000
20.80000 75.000
20.84000 97.000
20.88000 92.000
20.92000 111.000
20.96000 110.000
21.00000 126.000
21.04000 103.000
21.08000 89.000
21.12000 68.000
21.16000 65.000
21.20000 82.000
21.24000 87.000
21.28000 94.000
21.32000 81.000
21.36000 77.000
21.40000 97.000
21.44000 96.000
21.48000 92.000
21.52000 111.000
21.56000 152.000
21.60000 138.000
21.64000 131.000
21.68000 133.000
21.72000 112.000
21.76000 99.000
21.80000 96.000
21.84000 82.000
21.88000 76.000
21.92000 67.000
21.96000 53.000
22.00000 64.000
22.04000 67.000
22.08000 64.000
22.12000 63.000
22.16000 77.000
22.20000 67.000
22.24000 98.000
22.28000 103.000
22.32000 133.000
22.36000 156.000
22.40000 185.000
22.44000 255.000
22.48000 281.000
22.52000 340.000
22.56000 381.000
22.60000 317.000
22.64000 307.000
22.68000 246.000
22.72000 179.000
22.76000 153.000
22.80000 135.000
22.84000 104.000
22.88000 86.000
22.92000 64.000
22.96000 73.000
23.00000 47.000
23.04000 83.000
23.08000 83.000
23.12000 59.000
23.16000 63.000
23.20000 81.000
23.24000 59.000
23.28000 69.000
23.32000 72.000
23.36000 64.000
23.40000 72.000
23.44000 61.000
23.48000 69.000
23.52000 79.000
23.56000 83.000
23.60000 100.000
23.64000 93.000
23.68000 92.000
23.72000 74.000
23.76000 80.000
23.80000 59.000
23.84000 75.000
23.88000 58.000
23.92000 77.000
23.96000 49.000
24.00000 57.000
24.04000 50.000
24.08000 66.000
24.12000 71.000
24.16000 57.000
24.20000 52.000
24.24000 68.000
24.28000 57.000
24.32000 75.000
24.36000 65.000
24.40000 67.000
24.44000 82.000
24.48000 77.000
24.52000 69.000
24.56000 103.000
24.60000 107.000
24.64000 107.000
24.68000 88.000
24.72000 86.000
24.76000 85.000
24.80000 69.000
24.84000 77.000
24.88000 78.000
24.92000 76.000
24.96000 66.000
25.00000 77.000
25.04000 101.000
25.08000 92.000
25.12000 139.000
25.16000 145.000
25.20000 155.000
25.24000 152.000
25.28000 165.000
25.32000 175.000
25.36000 163.000
25.40000 159.000
25.44000 158.000
25.48000 173.000
25.52000 180.000
25.56000 188.000
25.60000 241.000
25.64000 267.000
25.68000 262.000
25.72000 200.000
25.76000 195.000
25.80000 175.000
25.84000 165.000
25.88000 174.000
25.92000 187.000
25.96000 215.000
26.00000 264.000
26.04000 277.000
26.08000 346.000
26.12000 384.000
26.16000 481.000
26.20000 527.000
26.24000 540.000
26.28000 581.000
26.32000 529.000
26.36000 528.000
26.40000 455.000
26.44000 385.000
26.48000 351.000
26.52000 271.000
26.56000 197.000
26.60000 170.000
26.64000 149.000
26.68000 129.000
26.72000 137.000
26.76000 115.000
26.80000 135.000
26.84000 123.000
26.88000 149.000
26.92000 214.000
26.96000 246.000
27.00000 289.000
27.04000 369.000
27.08000 423.000
27.12000 435.000
27.16000 393.000
27.20000 360.000
27.24000 319.000
27.28000 321.000
27.32000 327.000
27.36000 326.000
27.40000 276.000
27.44000 254.000
27.48000 222.000
27.52000 186.000
27.56000 122.000
27.60000 125.000
27.64000 83.000
27.68000 82.000
27.72000 88.000
27.76000 76.000
27.80000 65.000
27.84000 90.000
27.88000 66.000
27.92000 96.000
27.96000 71.000
28.00000 71.000
28.04000 69.000
28.08000 88.000
28.12000 73.000
28.16000 74.000
28.20000 79.000
28.24000 87.000
28.28000 107.000
28.32000 108.000
28.36000 136.000
28.40000 132.000
28.44000 184.000
28.48000 172.000
28.52000 269.000
28.56000 322.000
28.60000 312.000
28.64000 290.000
28.68000 280.000
28.72000 217.000
28.76000 163.000
28.80000 126.000
28.84000 118.000
28.88000 100.000
28.92000 76.000
28.96000 83.000
29.00000 88.000
29.04000 72.000
29.08000 64.000
29.12000 66.000
29.16000 61.000
29.20000 67.000
29.24000 74.000
29.28000 64.000
29.32000 81.000
29.36000 59.000
29.40000 92.000
29.44000 63.000
29.48000 64.000
29.52000 94.000
29.56000 66.000
29.60000 73.000
29.64000 72.000
29.68000 67.000
29.72000 63.000
29.76000 65.000
29.80000 69.000
29.84000 49.000
29.88000 64.000
29.92000 52.000
29.96000 56.000
30.00000 52.000
30.04000 53.000
30.08000 55.000
30.12000 55.000
30.16000 56.000
30.20000 69.000
30.24000 63.000
30.28000 59.000
30.32000 66.000
30.36000 67.000
30.40000 60.000
30.44000 60.000
30.48000 59.000
30.52000 56.000
30.56000 41.000
30.60000 78.000
30.64000 50.000
30.68000 46.000
30.72000 38.000
30.76000 56.000
30.80000 40.000
30.84000 64.000
30.88000 57.000
30.92000 70.000
30.96000 87.000
31.00000 95.000
31.04000 116.000
31.08000 123.000
31.12000 155.000
31.16000 211.000
31.20000 233.000
31.24000 228.000
31.28000 226.000
31.32000 193.000
31.36000 156.000
31.40000 129.000
31.44000 114.000
31.48000 77.000
31.52000 68.000
31.56000 68.000
31.60000 63.000
31.64000 64.000
31.68000 52.000
31.72000 66.000
31.76000 68.000
31.80000 75.000
31.84000 81.000
31.88000 93.000
31.92000 124.000
31.96000 159.000
32.00000 176.000
32.04000 194.000
32.08000 169.000
32.12000 161.000
32.16000 118.000
32.20000 131.000
32.24000 107.000
32.28000 122.000
32.32000 125.000
32.36000 95.000
32.40000 129.000
32.44000 108.000
32.48000 106.000
32.52000 114.000
32.56000 98.000
32.60000 106.000
32.64000 94.000
32.68000 72.000
32.72000 57.000
32.76000 53.000
32.80000 60.000
32.84000 45.000
32.88000 51.000
32.92000 52.000
32.96000 46.000
33.00000 59.000
33.04000 66.000
33.08000 70.000
33.12000 84.000
33.16000 95.000
33.20000 105.000
33.24000 97.000
33.28000 92.000
33.32000 82.000
33.36000 84.000
33.40000 68.000
33.44000 58.000
33.48000 63.000
33.52000 49.000
33.56000 39.000
33.60000 48.000
33.64000 39.000
33.68000 47.000
33.72000 46.000
33.76000 51.000
33.80000 43.000
33.84000 35.000
33.88000 35.000
33.92000 37.000
33.96000 45.000
34.00000 57.000
34.04000 53.000
34.08000 48.000
34.12000 42.000
34.16000 60.000
34.20000 52.000
34.24000 52.000
34.28000 54.000
34.32000 43.000
34.36000 55.000
34.40000 64.000
34.44000 55.000
34.48000 65.000
34.52000 66.000
34.56000 59.000
34.60000 55.000
34.64000 60.000
34.68000 48.000
34.72000 39.000
34.76000 38.000
34.80000 53.000
34.84000 51.000
34.88000 55.000
34.92000 56.000
34.96000 41.000
35.00000 57.000
35.04000 74.000
35.08000 80.000
35.12000 83.000
35.16000 88.000
35.20000 78.000
35.24000 88.000
35.28000 70.000
35.32000 69.000
35.36000 70.000
35.40000 60.000
35.44000 66.000
35.48000 63.000
35.52000 60.000
35.56000 63.000
35.60000 82.000
35.64000 79.000
35.68000 77.000
35.72000 86.000
35.76000 94.000
35.80000 74.000
35.84000 95.000
35.88000 75.000
35.92000 80.000
35.96000 82.000
36.00000 55.000
36.04000 70.000
36.08000 63.000
36.12000 59.000
36.16000 60.000
36.20000 57.000
36.24000 56.000
36.28000 54.000
36.32000 67.000
36.36000 46.000
36.40000 79.000
36.44000 61.000
36.48000 63.000
36.52000 61.000
36.56000 52.000
36.60000 62.000
36.64000 73.000
36.68000 64.000
36.72000 55.000
36.76000 60.000
36.80000 57.000
36.84000 50.000
36.88000 40.000
36.92000 46.000
36.96000 43.000
37.00000 50.000
37.04000 56.000
37.08000 66.000
37.12000 58.000
37.16000 96.000
37.20000 86.000
37.24000 101.000
37.28000 118.000
37.32000 126.000
37.36000 153.000
37.40000 178.000
37.44000 192.000
37.48000 220.000
37.52000 206.000
37.56000 186.000
37.60000 209.000
37.64000 201.000
37.68000 180.000
37.72000 144.000
37.76000 121.000
37.80000 96.000
37.84000 81.000
37.88000 64.000
37.92000 61.000
37.96000 46.000
38.00000 40.000
38.04000 37.000
38.08000 41.000
38.12000 37.000
38.16000 42.000
38.20000 34.000
38.24000 39.000
38.28000 45.000
38.32000 36.000
38.36000 51.000
38.40000 43.000
38.44000 44.000
38.48000 37.000
38.52000 31.000
38.56000 33.000
38.60000 43.000
38.64000 31.000
38.68000 44.000
38.72000 45.000
38.76000 22.000
38.80000 38.000
38.84000 45.000
38.88000 51.000
38.92000 53.000
38.96000 50.000
39.00000 51.000
39.04000 51.000
39.08000 56.000
39.12000 68.000
39.16000 52.000
39.20000 61.000
39.24000 77.000
39.28000 74.000
39.32000 63.000
39.36000 79.000
39.40000 67.000
39.44000 80.000
39.48000 80.000
39.52000 62.000
39.56000 91.000
39.60000 51.000
39.64000 74.000
39.68000 58.000
39.72000 57.000
39.76000 57.000
39.80000 51.000
39.84000 44.000
39.88000 45.000
39.92000 51.000
39.96000 46.000
40.00000 49.000
40.04000 52.000
40.08000 43.000
40.12000 47.000
40.16000 71.000
40.20000 52.000
40.24000 60.000
40.28000 77.000
40.32000 89.000
40.36000 99.000
40.40000 85.000
40.44000 99.000
40.48000 95.000
40.52000 89.000
40.56000 87.000
40.60000 104.000
40.64000 80.000
40.68000 82.000
40.72000 98.000
40.76000 77.000
40.80000 110.000
40.84000 115.000
40.88000 125.000
40.92000 106.000
40.96000 125.000
41.00000 118.000
41.04000 117.000
41.08000 107.000
41.12000 93.000
41.16000 96.000
41.20000 69.000
41.24000 54.000
41.28000 50.000
41.32000 52.000
41.36000 48.000
41.40000 45.000
41.44000 51.000
41.48000 51.000
41.52000 37.000
41.56000 44.000
41.60000 47.000
41.64000 40.000
41.68000 53.000
41.72000 43.000
41.76000 49.000
41.80000 40.000
41.84000 44.000
41.88000 49.000
41.92000 64.000
41.96000 65.000
42.00000 60.000
42.04000 70.000
42.08000 79.000
42.12000 75.000
42.16000 76.000
42.20000 63.000
42.24000 61.000
42.28000 62.000
42.32000 51.000
42.36000 41.000
42.40000 36.000
42.44000 38.000
42.48000 36.000
42.52000 45.000
42.56000 44.000
42.60000 47.000
42.64000 42.000
42.68000 46.000
42.72000 48.000
42.76000 43.000
42.80000 48.000
42.84000 52.000
42.88000 40.000
42.92000 31.000
42.96000 39.000
43.00000 42.000
43.04000 42.000
43.08000 45.000
43.12000 55.000
43.16000 32.000
43.20000 47.000
43.24000 59.000
43.28000 55.000
43.32000 56.000
43.36000 69.000
43.40000 51.000
43.44000 54.000
43.48000 62.000
43.52000 49.000
43.56000 39.000
43.60000 43.000
43.64000 50.000
43.68000 45.000
43.72000 49.000
43.76000 46.000
43.80000 48.000
43.84000 46.000
43.88000 62.000
43.92000 64.000
43.96000 57.000
44.00000 78.000
44.04000 61.000
44.08000 64.000
44.12000 72.000
44.16000 79.000
44.20000 75.000
44.24000 93.000
44.28000 72.000
44.32000 88.000
44.36000 71.000
44.40000 79.000
44.44000 68.000
44.48000 46.000
44.52000 45.000
44.56000 45.000
44.60000 35.000
44.64000 49.000
44.68000 29.000
44.72000 43.000
44.76000 36.000
44.80000 36.000
44.84000 33.000
44.88000 30.000
44.92000 37.000
44.96000 26.000
45.00000 29.000
45.04000 26.000
45.08000 19.000
45.12000 29.000
45.16000 28.000
45.20000 33.000
45.24000 29.000
45.28000 30.000
45.32000 36.000
45.36000 29.000
45.40000 29.000
45.44000 26.000
45.48000 33.000
45.52000 34.000
45.56000 35.000
45.60000 38.000
45.64000 45.000
45.68000 32.000
45.72000 37.000
45.76000 38.000
45.80000 42.000
45.84000 41.000
45.88000 34.000
45.92000 42.000
45.96000 42.000
46.00000 20.000
46.04000 31.000
46.08000 36.000
46.12000 42.000
46.16000 26.000
46.20000 45.000
46.24000 28.000
46.28000 35.000
46.32000 49.000
46.36000 48.000
46.40000 55.000
46.44000 45.000
46.48000 53.000
46.52000 47.000
46.56000 41.000
46.60000 35.000
46.64000 38.000
46.68000 31.000
46.72000 35.000
46.76000 29.000
46.80000 34.000
46.84000 27.000
46.88000 27.000
46.92000 25.000
46.96000 37.000
47.00000 30.000
47.04000 49.000
47.08000 35.000
47.12000 34.000
47.16000 21.000
47.20000 37.000
47.24000 29.000
47.28000 29.000
47.32000 30.000
47.36000 31.000
47.40000 23.000
47.44000 43.000
47.48000 30.000
47.52000 30.000
47.56000 25.000
47.60000 33.000
47.64000 31.000
47.68000 37.000
47.72000 31.000
47.76000 36.000
47.80000 45.000
47.84000 38.000
47.88000 32.000
47.92000 32.000
47.96000 38.000
48.00000 36.000
48.04000 37.000
48.08000 31.000
48.12000 36.000
48.16000 30.000
48.20000 39.000
48.24000 38.000
48.28000 41.000
48.32000 56.000
48.36000 44.000
48.40000 49.000
48.44000 55.000
48.48000 54.000
48.52000 34.000
48.56000 36.000
48.60000 31.000
48.64000 26.000
48.68000 27.000
48.72000 24.000
48.76000 32.000
48.80000 26.000
48.84000 26.000
48.88000 18.000
48.92000 23.000
48.96000 28.000
49.00000 29.000
49.04000 40.000
49.08000 30.000
49.12000 25.000
49.16000 33.000
49.20000 21.000
49.24000 24.000
49.28000 35.000
49.32000 24.000
49.36000 24.000
49.40000 30.000
49.44000 24.000
49.48000 28.000
49.52000 32.000
49.56000 26.000
49.60000 37.000
49.64000 27.000
49.68000 33.000
49.72000 39.000
49.76000 44.000
49.80000 40.000
49.84000 26.000
49.88000 36.000
49.92000 36.000
49.96000 30.000
50.00000 34.000
50.04000 35.000
50.08000 32.000
50.12000 27.000
50.16000 33.000
50.20000 42.000
50.24000 37.000
50.28000 35.000
50.32000 45.000
50.36000 49.000
50.40000 47.000
50.44000 58.000
50.48000 50.000
50.52000 42.000
50.56000 40.000
50.60000 53.000
50.64000 28.000
50.68000 44.000
50.72000 35.000
50.76000 26.000
50.80000 33.000
50.84000 34.000
50.88000 18.000
50.92000 20.000
50.96000 20.000
51.00000 18.000
51.04000 24.000
51.08000 24.000
51.12000 15.000
51.16000 20.000
51.20000 32.000
51.24000 26.000
51.28000 26.000
51.32000 34.000
51.36000 16.000
51.40000 34.000
51.44000 21.000
51.48000 25.000
51.52000 37.000
51.56000 29.000
51.60000 36.000
51.64000 51.000
51.68000 44.000
51.72000 41.000
51.76000 54.000
51.80000 60.000
51.84000 38.000
51.88000 42.000
51.92000 44.000
51.96000 25.000
52.00000 45.000
52.04000 38.000
52.08000 39.000
52.12000 27.000
52.16000 30.000
52.20000 36.000
52.24000 47.000
52.28000 30.000
52.32000 33.000
52.36000 41.000
52.40000 34.000
52.44000 41.000
52.48000 33.000
52.52000 41.000
52.56000 45.000
52.60000 46.000
52.64000 52.000
52.68000 41.000
52.72000 42.000
52.76000 37.000
52.80000 52.000
52.84000 47.000
52.88000 61.000
52.92000 58.000
52.96000 42.000
53.00000 59.000
53.04000 63.000
53.08000 58.000
53.12000 54.000
53.16000 63.000
53.20000 56.000
53.24000 61.000
53.28000 71.000
53.32000 45.000
53.36000 55.000
53.40000 38.000
53.44000 27.000
53.48000 32.000
53.52000 36.000
53.56000 34.000
53.60000 30.000
53.64000 28.000
53.68000 28.000
53.72000 28.000
53.76000 32.000
53.80000 36.000
53.84000 34.000
53.88000 32.000
53.92000 46.000
53.96000 43.000
54.00000 34.000
54.04000 55.000
54.08000 32.000
54.12000 40.000
54.16000 35.000
54.20000 43.000
54.24000 34.000
54.28000 24.000
54.32000 29.000
54.36000 18.000
54.40000 16.000
54.44000 29.000
54.48000 30.000
54.52000 23.000
54.56000 21.000
54.60000 18.000
54.64000 25.000
54.68000 19.000
54.72000 31.000
54.76000 18.000
54.80000 30.000
54.84000 42.000
54.88000 22.000
54.92000 21.000
54.96000 27.000
55.00000 22.000
55.04000 27.000
55.08000 26.000
55.12000 22.000
55.16000 32.000
55.20000 21.000
55.24000 31.000
55.28000 31.000
55.32000 30.000
55.36000 27.000
55.40000 27.000
55.44000 26.000
55.48000 32.000
55.52000 30.000
55.56000 28.000
55.60000 33.000
55.64000 39.000
55.68000 40.000
55.72000 25.000
55.76000 36.000
55.80000 35.000
55.84000 37.000
55.88000 28.000
55.92000 33.000
55.96000 29.000
56.00000 35.000
56.04000 36.000
56.08000 29.000
56.12000 31.000
56.16000 41.000
56.20000 38.000
56.24000 27.000
56.28000 35.000
56.32000 23.000
56.36000 43.000
56.40000 27.000
56.44000 22.000
56.48000 29.000
56.52000 39.000
56.56000 27.000
56.60000 30.000
56.64000 25.000
56.68000 33.000
56.72000 25.000
56.76000 35.000
56.80000 34.000
56.84000 24.000
56.88000 32.000
56.92000 26.000
56.96000 25.000
57.00000 19.000
57.04000 22.000
57.08000 23.000
57.12000 21.000
57.16000 27.000
57.20000 24.000
57.24000 26.000
57.28000 22.000
57.32000 15.000
57.36000 25.000
57.40000 21.000
57.44000 18.000
57.48000 26.000
57.52000 28.000
57.56000 13.000
57.60000 32.000
57.64000 29.000
57.68000 25.000
57.72000 23.000
57.76000 21.000
57.80000 25.000
57.84000 38.000
57.88000 26.000
57.92000 18.000
57.96000 21.000
58.00000 22.000
58.04000 25.000
58.08000 22.000
58.12000 30.000
58.16000 35.000
58.20000 23.000
58.24000 36.000
58.28000 15.000
58.32000 27.000
58.36000 30.000
58.40000 21.000
58.44000 23.000
58.48000 20.000
58.52000 25.000
58.56000 25.000
58.60000 22.000
58.64000 15.000
58.68000 27.000
58.72000 26.000
58.76000 18.000
58.80000 23.000
58.84000 19.000
58.88000 20.000
58.92000 30.000
58.96000 23.000
59.00000 26.000
59.04000 30.000
59.08000 28.000
59.12000 26.000
59.16000 28.000
59.20000 31.000
59.24000 37.000
59.28000 41.000
59.32000 40.000
59.36000 36.000
59.40000 27.000
59.44000 31.000
59.48000 39.000
59.52000 37.000
59.56000 31.000
59.60000 31.000
59.64000 26.000
59.68000 28.000
59.72000 25.000
59.76000 32.000
59.80000 30.000
59.84000 45.000
59.88000 40.000
59.92000 40.000